time,gyro_x,gyro_y,gyro_z,accel_x,accel_y,accel_z
354.060995,-0.0537147960714346,-0.0020546555500925,-0.0387582825498336,0.849735300242901,-0.286952638626099,-9.80505294799805
354.080996,0.0437026889168001,0.011853237246243,-0.0422064181962008,1.51443279385567,0.177556574344635,-10.0444674491882
354.100995,-0.0387912743528978,0.0146235113727556,-0.0401972313889456,1.7216371640563,0.252534617483616,-9.78943824768066
354.12100000000004,0.017216735347459,-0.0265779699312052,-0.03849363913263,0.668596608936787,0.0116292059421539,-10.0419301986694
354.14099500000003,-0.008590015770777,0.0214151102514672,-0.039642932144627,1.67652631998062,-0.103272771835327,-10.0955279350281
354.160996,-0.0153639056336477,-0.0171509078802521,-0.0378521458603704,1.16384043991566,0.34720578789711,-9.69812154769898
354.180994,0.0196022850655417,0.0141756552487454,-0.0401260703015541,1.40382255911827,-0.183867090940475,-9.92188663482666
354.20101800000003,-0.0723301626015449,-0.0089961042950112,-0.034151355519945,1.4064176261425,0.48463788330555,-9.77980604171753
354.221003,0.030210142325633,-0.0028620049383156,-0.0350078859201624,1.12058259248734,-0.449825900793076,-9.94923429489136
354.240631,-0.0587866697367829,0.0093956555278777,-0.0344302303971055,1.41415369510651,0.522505241632462,-10.1814226150513
354.261753,0.0443435319634595,-0.0183592716827875,-0.0345960991778799,1.28331275582314,-0.354823958873749,-9.27585973739624
354.280995,-0.113909859192895,0.0216636334356155,-0.0318959681010073,1.1637365013361,0.209292965382338,-10.5961832046509
354.300996,0.0626548686386022,-0.011239222471158,-0.0309777096487017,1.67308937311173,-0.158582523465157,-8.86972150802612
354.321001,-0.11401713558675,0.0042615784657592,-0.0317502858453396,1.44314935132861,0.246087757498026,-11.5569122314453
354.340995,0.0611255295046685,-0.01590104399988,-0.0292611126436555,0.882505112886429,-0.188856410980225,-8.36208972930908
354.360995,-0.114683235994969,0.0056513397385412,-0.0301108651210962,1.25138579010963,-0.235469986498356,-10.9950870513916
354.38099600000004,0.0268654999638756,0.018998608445477,-0.0285107446073755,2.19948844909668,0.484371124207973,-8.6226788520813
354.400997,-0.0900622132479866,-0.0182320388609533,-0.0249575563659302,0.416006344556808,-0.513301792740822,-11.2451808929443
354.420999,0.0277079621263265,0.0257193309111589,-0.0263163741173065,2.04553207755089,0.227436262369156,-8.65482521057129
354.440995,-0.0940708490246966,-0.0276249677260404,-0.0242482871800603,0.796668529510498,-0.503840851783753,-10.6947832107544
354.460996,0.0335044847926073,0.0128529938165144,-0.0240146614237108,1.92771239876747,0.325847923755646,-9.52961101531983
354.480996,-0.0922906405836662,-0.0234019866329748,-0.018770003635694,0.745588600635529,-0.380583757162094,-9.80457954406738
354.500995,-0.0015952920249362,0.0162985696915256,-0.0202647453466812,1.4502565741539,-0.0080096140503883,-10.3065334320068
354.521002,-0.0416000913164809,-0.0196431138122256,-0.0187598803090099,1.05003542453051,-0.112620842456818,-9.0718635559082
354.541001,-0.0277111405204366,6.33439399365443e-05,-0.0166151603758439,1.52411390095949,0.0076684385538101,-9.85665645599365
354.561758,-0.0619931628014376,-0.0075248999577232,-0.0146036702300648,1.01960655450821,-0.169827023148537,-9.97436876296997
354.58099500000003,0.0062990403512922,-0.0096644150086564,-0.0118393396875181,1.3705411106348,-0.14647176861763,-10.0324306488037
354.600994,-0.0162858736327677,0.0090850081908,-0.0138517412262384,1.8227863907814,0.0951307237148285,-9.22765121459961
354.621033,-0.0610680312627288,-0.0260176706439034,-0.0084712955957382,0.763659209012985,-0.234946429729462,-9.62135810852051
354.64099500000003,0.0143349508742481,0.0011181967582969,-0.0100231609898389,1.63500915765762,-0.046388353407383,-9.92077789306641
354.660996,-0.0746220739150537,-0.0117538448008033,-0.0043343782554132,1.56627219095826,0.120033103227615,-9.8572732925415
354.680995,0.0237658101972851,0.0008584327850285,-0.0078303734827821,1.0515418946743,-0.440521365404129,-9.5935507774353
354.70099500000003,-0.0632081283031543,-0.006869345845367,-0.0049581748511455,1.31486722230911,0.215933609008789,-9.90590791702271
354.720998,0.0472107873832457,-0.0096578984307647,-0.004558053139561,1.32352912053466,-0.152507268637419,-9.09672136306763
354.741033,-0.0981844836967984,0.0136317231583134,-0.0004992169186444,1.56490132808685,0.0239938050508499,-10.2248858451843
354.76099500000004,0.0425104536733976,-0.015617605766427,-0.0022435674514397,0.964262518286705,-0.106555682420731,-9.32590627670288
354.780996,-0.0514454394843266,0.0164160761752373,-0.0025436521881902,1.39856367111206,-0.256629192829132,-10.4783155441284
354.800994,0.0222858919226016,-0.0186381565615979,0.0010222616878975,1.45024278834462,0.217436635494232,-8.3953854560852
354.820685,-0.0484630623233131,0.0056356887396925,0.000951865623149,1.26926683783531,-0.16814669072628,-11.0744574546814
354.844242,0.0262504189774123,0.0055386291198892,0.002466206511988,1.36678473353386,-0.080853796005249,-9.00516357421875
354.860995,0.0043414448352723,-0.0100166740618084,0.002182085534627,0.946548008918762,-0.461278584599495,-10.0860020637512
354.88099600000004,-0.0245379607615832,0.0160308308524783,0.0031721641253446,1.9293980717659,0.391995251178741,-9.28919982910156
354.900994,0.0079145564223173,-0.0183079241003918,0.0062265714150302,0.518555699288845,-0.346067628264427,-9.87645740509033
354.921,-0.0025958519229858,0.0291353623740659,0.0065202227828808,1.71077153682709,0.0394409894943237,-10.226321220398
354.940995,0.0510096023843181,-0.0160543410027521,0.008633065475532,1.43319098353386,-0.101833099126816,-8.98486661911011
354.960998,-0.02050606396963,0.0141710701728939,0.0080730124122776,1.19599686637521,-0.152026084065437,-10.4529009819031
354.980995,0.030844150753773,-0.0050533229130268,0.0106707978198793,1.408663803339,0.223564533889294,-8.70889854431152
355.000995,-0.0254191603198249,0.0053927839971193,0.0130924951574475,1.0474180676043,-0.427306646108627,-11.4235641479492
355.021001,0.0825354845862451,0.0102013448789581,0.0108969526989101,1.93480688631535,0.405912083387375,-8.57348098754883
355.040995,-0.0309784397099564,-0.007268126241022,0.0136476647228434,0.835320237278938,-0.477058675885201,-10.1497018814087
355.061017,0.0465270842784988,0.0305393826705231,0.0135899995894691,1.77999718487263,0.491301304101944,-9.4229546546936
355.08099300000003,-0.008855323913014,-0.0155885428658874,0.0191034716602037,0.809483528137207,-0.436141270399094,-10.0446269035339
355.101002,0.0736513672550133,0.0308153595548563,0.0128401202728585,1.85631100535393,0.414180833101273,-9.52556428909302
355.1218,-0.0275745698269256,0.0007852040784692,0.0190384185625958,0.77647693157196,-0.408102938532829,-9.79065208435059
355.14099400000003,0.0720313655032306,0.0108977836643832,0.0165172045727091,1.45863336324692,0.197507806867361,-10.0178311347961
355.160995,0.000752717299539,0.009753490678342,0.019754649843634,1.80689289569855,-0.0136108845472336,-9.6576473236084
355.180995,0.0507595083197455,-0.0159867194341283,0.0200392596312859,0.69307154417038,-0.0572216078639031,-10.1941774368286
355.20099600000003,0.0324712459537523,0.0198239486119949,0.0217652977203003,1.43611360192299,-0.227937424182892,-9.8014669418335
355.220996,0.0222156102258309,-0.0078512388772672,0.0235836473678016,1.45862397998571,0.26802556142211,-9.75374708175659
355.240995,0.0569828830832162,0.0218441410216464,0.0211139957294653,1.3201363325119,-0.12920343875885,-9.98769035339356
355.26099600000003,0.0156934855019991,-0.0117631569433838,0.0260809639245959,1.21681208014488,0.401515436172485,-9.54960985183716
355.280997,0.0937590982104779,0.0137079530108101,0.0255060231688764,1.501307284832,-0.446096950769424,-10.1304649353027
355.300995,-0.0052446113898307,-3.76900040849115e-05,0.0252111551210401,1.37009286880493,0.48197295665741,-9.92697954177856
355.32099800000003,0.125190896372192,-0.0063545656050584,0.0242368159387251,1.20924431681633,-0.310368138551712,-9.54451456069946
355.340995,-0.0479515006020765,0.0193816476055049,0.0282370232430274,1.36127394735813,0.311769844591618,-10.1301824569702
355.360996,0.137233733059229,-0.0136631295223388,0.0270031927359686,1.26775388717651,-0.107432335615158,-9.22052726745605
355.380995,-0.018735696438136,0.015852423908814,0.02719612491586,1.52287316322327,0.380147689580917,-11.1986734390259
355.401001,0.141891436748936,-0.0160579417150458,0.0295194629517821,0.984624856710434,-0.274272805452347,-8.59020881652832
355.421801,-0.0290347197963769,0.0104521316909379,0.0286634718121153,1.06354541778564,-0.0516226202249527,-10.9318286895752
355.440994,0.129643204879444,0.0057119883670124,0.0282253171700565,2.22057704925537,0.599910120666027,-8.37224378585816
355.460996,-0.01379033914508,-0.0099098545480516,0.0314656519116929,0.664234089851379,-0.30982870310545,-11.3388004302979
355.480995,0.131663256792547,0.0154688863233737,0.0296633688197536,1.61134315729141,0.299445271492004,-8.60969390869141
355.500994,0.0130566216660207,-0.0305196523893145,0.0292044893389392,1.05945910215378,-0.175253527611494,-10.807919883728
355.520998,0.128182225187328,0.006650475132013,0.0291919258464273,1.90091818571091,0.601500253379345,-9.3358006477356
355.540995,0.0122648377151954,-0.0242958074447356,0.032510908354197,0.387928416579962,-0.180825601518154,-9.66146478652954
355.560996,0.0853672241179711,0.0171595385753662,0.0289695753227494,1.76244027614594,0.342925076186657,-9.9076397895813
355.58099500000003,0.0481212182425863,-0.0288082767633052,0.0293232530714588,0.845929020643234,0.0657922983169556,-9.34173831939697
355.600998,0.0847759452826108,0.0017004854716508,0.0291708080434426,1.5586678147316,0.332172757387161,-9.69177446365356
355.620998,0.0281987925580393,-0.0133864088466755,0.0311702038865304,1.18972936272621,0.0206871226429939,-9.71806955337524
355.64099600000003,0.0879087799248527,-0.0221333063536512,0.0302124728875824,1.08780280649662,0.0696352332830429,-10.32190990448
355.660996,0.081847514298321,-0.0012298719842636,0.0273526293117085,1.77787170410156,0.489703422784805,-8.88254337310791
355.680995,0.0358423374121116,-0.027403889364873,0.0302085138913363,0.929242277145386,-0.0992984175682068,-9.56907587051392
355.703229,0.0959013127599575,-0.0041043902884794,0.0267864762777449,1.36954495608807,0.248165886104107,-9.81641254425049
355.720998,0.0529453187448793,-0.0201308731752244,0.031054338620289,1.4701211899519,0.259652902185917,-9.82475967407227
355.740999,0.121727872116048,-0.006029569747294,0.0262459743389276,1.3330143854022,-0.111088091135025,-9.39134206771851
355.76099500000004,0.058035953359019,-0.0044900272734777,0.0283162770262852,1.02208784222603,0.273049664497376,-9.4696722984314
355.780996,0.179048963887421,-0.0144047436886007,0.0255634553644186,1.49240151643753,0.0725646391510963,-9.06791858673096
355.800994,0.0207244140701101,0.0091919019179819,0.0295170762859035,1.59784834235907,0.218221326172352,-9.87465858459473
355.821,0.181495277001427,-0.0203140206937631,0.0266466946403759,0.79749940931797,0.0344408869743347,-9.21854772567749
355.840995,0.0881955261595937,0.0113209680263893,0.0252801359671361,1.54337953105569,0.0673094093799591,-10.1668023109436
355.860994,0.176818885258644,-0.0166218760398301,0.0253946549758045,1.22525951564312,0.393547939509153,-8.2491777420044
355.880995,0.0808624623429781,0.004967255106363,0.0250983687058616,1.39536340236664,0.120660811662674,-10.484984588623
355.900995,0.162313073774284,-0.0051763854315698,0.0244760743401761,1.32408186793327,0.248492461442947,-9.13659048080444
355.92102700000004,0.148017028489251,-0.0026892381557855,0.022133131650277,0.925737905502319,-0.0678175330162048,-10.0767724990845
355.94177,0.12555478077494,0.0078980157057005,0.0213284180814573,1.73462553024292,0.589521461725235,-8.77601852416992
355.960995,0.127708837869606,-0.0093572983131423,0.0213956239602098,0.923190155625343,-0.0013572007417678,-9.80916318893433
355.980996,0.130691168395708,0.0203456898230261,0.0198021260773776,1.40487585067749,0.526175627112389,-9.82948093414307
356.000996,0.183435387798959,-0.017898110701371,0.0194988852874804,1.27848107814789,0.037525174766779,-8.86424226760864
356.021008,0.0842794236162503,0.0140841885633513,0.0168932959594577,1.50072894692421,0.353090113401413,-10.1019678115845
356.040994,0.151983731568686,-0.0133987907707755,0.0171933532656479,0.87890310883522,0.463141345977783,-8.76993045806885
356.060995,0.0966569465169082,0.0039160781162372,0.0169703368333093,1.21156864091754,0.0297625243663788,-10.6606419563293
356.080996,0.17038488098776,0.0065132706597716,0.0142975709804886,1.82223705649376,0.631045697629452,-8.5464653968811
356.100996,0.0736743237340754,-0.0090230438867234,0.014080442856726,0.728281468153,-0.198372888565063,-10.0683597564697
356.121007,0.145106524249025,0.0157056602913398,0.0114394260280041,1.81504449993372,0.711156594753265,-9.12931756973267
356.140998,0.0762921247806073,-0.014239362118371,0.0149103544282013,0.885060161352158,-0.1274061024189,-10.2020656585693
356.160994,0.159804047356912,0.0191260713644382,0.00768745422726,1.84012092351913,0.720927864313126,-9.38723430633545
356.180996,0.0494206514645416,-0.0077790422344417,0.0120882408630116,0.840229000151157,-0.277656349539757,-9.52056283950806
356.20099500000003,0.138114389569314,0.011024167529611,0.0075616328216759,1.44884410500526,0.650358688831329,-9.9366192817688
356.221007,0.0661854474700701,-0.0086190458848432,0.0117890139896623,1.29306528568268,0.154201591014862,-9.52260494232178
356.240996,0.120859776257771,-0.0049204627724134,0.0071986649014657,1.31852332353592,0.258067843317986,-10.1146636009216
356.261002,0.0673745316611508,0.013926535812397,0.0086748569845773,0.99641384780407,0.0092167198657989,-9.64512443542481
356.28175300000004,0.0872192377800119,-0.0133422950610711,0.006928836782873,1.3292727470398,0.403909051418304,-9.5308159828186
356.300995,0.0884414348888096,0.020322227491291,0.0055196627960592,1.82964119911194,0.226810628175735,-9.82001953125
356.32099800000003,0.0623046008014825,-0.0301297771164379,0.0082122210261302,0.717656290531158,0.345584577322006,-9.48121109008789
356.340994,0.112968598839834,0.0154254235327272,0.005943958258505,1.51870516240597,-0.230657881498337,-10.2631742477417
356.360996,0.0144048883278441,-0.0073227573828042,0.0064364727845833,1.4751556456089,0.727502574026585,-9.27979774475098
356.380995,0.133115943282349,0.0012516440963624,0.0041995528978787,1.05333657264709,-0.131655213236809,-9.82337284088135
356.400994,-0.0187880238863061,0.007600374537706,0.0077152425388532,1.47340886592865,0.482420825958252,-9.81919918060303
356.420998,0.146961402525606,-0.0142963416652826,0.0061538657829196,1.14651463329792,-0.137887310981751,-9.6575629234314
356.440995,-0.0191372163981181,0.0196563427991287,0.0056621088892119,1.44332512617111,0.590396344661713,-10.1577920913696
356.460996,0.134814287335677,-0.0202156257649384,0.0052051894136602,1.29038127660751,-0.0785956531763077,-8.74409103393555
356.480995,-0.0289178915310486,0.020850319335681,0.0059562580684683,1.16456194669008,0.0523915857076645,-11.0025418281555
356.500996,0.127528797757137,-0.006211812589976,0.0057479570516565,1.7151567697525,0.323565542325378,-8.12475423812866
356.520998,-0.0258260574981596,0.0003582686835155,0.0050829667082036,1.22252939939499,0.0600897669792175,-11.4590951919556
356.540996,0.133079800042285,0.0007541116123762,0.0060838211814717,1.37807176709175,0.34916877746582,-8.18321027755737
356.56210400000003,0.0003044000343732,-0.0124881352294024,0.0050555964833267,0.797795653343201,-0.388186973333359,-10.5864736557007
356.58099400000003,0.0921003700410465,0.0279050986683816,0.0053867479422786,2.26950461864471,0.746476805210114,-8.94278240203857
356.600996,0.0063778468418324,-0.0164268007845372,0.0083568614531398,0.209988677129149,-0.339397576451302,-10.3406195640564
356.62100000000004,0.0943091378172426,0.0338322718800259,0.006190170380962,2.04677146971226,0.24204705953598,-9.2807354927063
356.64099600000003,0.0166038965947655,-0.0259409626060194,0.0077320801979429,1.03712333440781,-0.029757034778595,-9.854967212677
356.660995,0.100187163883426,0.0121059462687895,0.00669022959831,1.42855079174042,0.278151750564575,-9.86553373336792
356.680995,0.0153767196408557,-0.0082758470244276,0.0092654806822845,1.09138640761375,0.0019682496786117,-9.33184595108032
356.70099400000004,0.0600550736391561,-0.003799376069954,0.0102092121530248,1.266147133708,-0.0175553292036057,-10.570770072937
356.721,0.0616143107226164,0.0007593891693189,0.0084490929392467,1.45159603357315,0.36116635799408,-9.13802585601807
356.740998,0.0445535821741326,-0.0105783187189629,0.0110485632105716,1.17559091448784,-0.0496341705322266,-9.7054123878479
356.760994,0.0391474444949851,0.0125694911345606,0.0097298111214258,1.43820692002773,0.193330103158951,-10.1035605430603
356.780998,0.0558150393188977,-0.0151282293023621,0.0149058104833949,1.18604865074158,0.172351066023111,-10.1422151565552
356.800996,0.0872676888491143,0.0089312010446063,0.0090299645549399,1.73304437398911,-0.0357286155223846,-9.57822532653809
356.821003,-0.0053851491282526,0.0020113012388786,0.012623894664833,0.966559785604477,0.312525375932455,-9.61782455444336
356.841001,0.100052130943573,-0.0049019108364647,0.0103879969104902,1.27247407138348,0.0647578358650208,-9.79689664840698
356.861751,-0.0180512722972919,0.0099942047784957,0.0142765587570498,1.9201240837574,0.422784858942032,-10.5088672637939
356.88099800000003,0.0999406758722646,-0.004010792245593,0.0125366425207966,0.762082788348198,-0.149472896009684,-9.35139560699463
356.900996,-0.0049275396646245,0.0153548490509742,0.0134503417595049,1.45445257127285,0.196491245925427,-10.5399875640869
356.92100800000003,0.090272930136678,-0.0162296458962605,0.0121054987985279,1.34969933107495,0.295176577568054,-8.9646333694458
356.940995,-0.022271632839745,0.0217080073232963,0.0137039079648669,1.38986276984215,0.201874804496765,-10.9348844528198
356.960995,0.0721043109678018,-0.005268803546095,0.0141682872878114,1.16527754068375,0.153336971625686,-9.23020505905151
356.980996,0.0164561038430349,0.0168524731309097,0.0119154904737182,1.26482040286064,-0.113607444614172,-10.9467192649841
357.000996,0.0418187514089237,-0.0019626523856717,0.0132335703809792,1.607427328825,0.618844428658485,-8.90032930374145
357.021007,0.018705601533044,-0.0043578536218428,0.0139512222513784,1.09314774274826,-0.195081067085266,-10.4817646980286
357.040996,0.0077321419536919,0.0201147532676665,0.0144229427852822,1.57665730714798,0.56447965502739,-9.92450971603394
357.060994,0.0579941597342401,-0.0161879587831338,0.0144311983482506,0.829937189817429,-0.131056685745716,-9.47873697280884
357.080996,-0.0376863669169002,0.024006661879305,0.0128995064001762,1.8346081495285,0.424884524941444,-10.1764286994934
357.100996,0.0182561608577155,-0.017710470992125,0.0145878817085312,0.815744996070862,0.205538815259933,-9.25693044662476
357.120998,-0.0050017333380508,0.0260607466251821,0.0144974910586212,1.1710496544838,-0.0097834467887878,-11.2163444519043
357.141005,0.0530538411273632,-0.0073188631309658,0.0136617884727255,1.95741140246391,0.451161125302315,-8.56176357269287
357.161593,-0.0675107148055271,0.0039878956876577,0.0130327224574875,0.734308722615242,-0.160813149809837,-11.2195690155029
357.180997,0.0545291486710757,0.009766979619368,0.010961967624541,1.90310524702072,0.541810870170593,-8.88675937652588
357.200998,-0.059313783786746,-0.0066723157705782,0.0149346961949432,1.06732623577118,-0.319926634430885,-11.1719017028809
357.221017,0.0437406696197245,0.0450642941102236,0.0102459151895721,1.88673120737076,0.600847890973091,-9.48493633270264
357.241008,-0.0659189699041632,-0.0253261338505115,0.0136457173010174,0.629138362407684,-0.397689276188612,-10.7024538040161
357.261007,0.0509604204846034,0.0335661001633865,0.0116824998517222,2.02789009809494,0.588857614994049,-9.88725271224976
357.281007,-0.0642489188018842,-0.0102870526262288,0.0178071979535047,0.936278986930847,-0.221262384951115,-9.83845310211182
357.301011,0.0271995749524116,0.0215543504977565,0.012770362848959,1.51148723363876,0.203466578572989,-10.6657919883728
357.32102000000003,-0.0703107520960193,0.0070514107297,0.0179681113606593,1.11249452829361,-0.078930938243866,-10.085913848877
357.34102,0.0269341428844071,-0.0007515229013353,0.0178953232593238,1.17349551320076,0.0074191123247146,-10.2159502029419
357.361019,-0.0405720217326801,0.0074889503590677,0.0174395361229224,1.93902006745338,0.17290101647377,-10.1145793914795
357.38102200000003,0.0123695206339095,-0.0147926519358259,0.0208325644542863,0.874052637815476,0.176939368247986,-10.2214800834656
357.401022,0.0060866636621835,0.0215829968798857,0.0203955082182656,1.28589893579483,-0.373723623156548,-10.1738349914551
357.42121000000003,-0.0539505699927825,-0.0121782389037806,0.02155262240205,1.62146723270416,0.489080935716629,-10.0584787368774
357.44266,0.030389458294984,0.0086053361677544,0.0194319696341164,1.15307283177972,-0.265147434920073,-10.01636095047
357.462,-0.0612198347648047,0.0040559992292759,0.0230495796264232,1.20023503899574,0.48555753827095,-10.0701033592224
357.48199800000003,0.0563983807502799,0.0059201868521183,0.0234979385552664,1.64889651536942,-0.427691169083118,-9.94563131332398
357.501999,-0.0671946889776975,0.0142477169580705,0.0237675898991374,1.29883326292038,0.480363917350769,-10.8025549888611
357.52200400000004,0.0879802887619144,-0.0138100934095347,0.0240141254773164,1.22512633353472,-0.538307321071625,-8.99330186843872
357.542002,-0.0996059574639848,0.0231149968077567,0.0259378742859389,1.41512224674225,0.317462189495564,-11.6684804916382
357.561999,0.104573108174429,0.0076960960743616,0.0270646764874035,1.36396178007126,-0.221095353364944,-8.52112255096436
357.581998,-0.0615368446898759,0.0048165781806525,0.0272899794507598,1.43334068655968,0.171533739566803,-12.0542594909668
357.602002,0.0940328336599896,0.0120272487311326,0.0290445732560602,1.31346563696861,-0.0734597802162171,-8.19259614944458
357.622002,-0.0542382750839153,-0.00533110115959,0.0283782863081952,0.820165365934372,-0.301770424842834,-11.7947383880615
357.642014,0.0992588213860635,0.0284908137457432,0.0285232314008451,2.29540992975235,0.505547714233398,-8.4855489730835
357.66199900000004,-0.0666934747029546,-0.0108041963925043,0.0307039030631955,0.5949154317379,-0.223183702677488,-11.4283697128296
357.682002,0.101388703605423,0.036513630629566,0.029805494512422,1.73252567052841,0.193277186155319,-9.30846529006958
357.702015,-0.016050997966099,-0.0273986752503481,0.0323166230516949,1.04735468327999,-0.222336360067129,-10.2785649299622
357.722669,0.0609805029784675,0.0330057006820425,0.0302571268806392,1.71889227926731,0.436205017566681,-9.94261817932129
357.742002,-0.0286960594360826,-0.0177874475062478,0.0323309719274697,0.583938817679882,-0.0626338958740234,-9.8078649520874
357.761998,0.0424704560697308,0.0314457042425544,0.0315446036332902,1.85029955506325,0.103050202131271,-10.2034097671509
357.781998,-0.0090525228322224,-0.0097092574351628,0.0306376914312879,1.13816565275192,0.19370011985302,-9.29239406585693
357.801998,0.0263130732177816,0.00352055587637,0.0314613979555496,1.269126111269,0.135814613103867,-9.78228454589844
357.822006,-0.0184873044590624,0.0177837978805602,0.0333160944269935,1.55373827219009,0.344823205471039,-9.65886125564575
357.841998,-0.0216332768897318,-0.0154910092625735,0.0356303464671062,1.00883311033249,-0.0754615545272827,-10.1803569793701
357.862005,0.0099664198550352,0.0193470952787545,0.0303316343188399,1.82354138493538,0.428319261968136,-9.22620248794556
357.881998,-0.0633117130821464,-0.0035973649960165,0.0340531362413962,0.956455281376839,0.203791574388742,-9.43073673248291
357.902,-0.0043998592638433,0.0107201505761798,0.0306202850097398,1.30765063762665,0.182252505421638,-9.68093118667603
357.922007,-0.0865919496911854,0.004718129988604,0.0353728886138856,1.59754074811935,0.51152378320694,-9.64779453277588
357.941999,-0.0120162211724519,0.0109486402782179,0.031281150945046,1.01229580193758,-0.101340040564537,-9.22920351028443
357.961993,-0.0914688566398548,0.0101556576977217,0.0320063347087458,1.28424494862556,0.205060079693794,-9.83036155700684
357.982006,0.007908875958677,-0.0060555664615817,0.0322267644422096,1.27868661880493,0.164452120661736,-8.34709796905518
358.00201500000003,-0.132171047063267,0.0202652121692474,0.0332459986040786,1.59211391210556,0.377174159884453,-10.3744428634644
358.022652,-0.0181615828011013,-0.0184466882326415,0.0339146570673941,0.69431437253952,0.0658994972705841,-8.89604845046997
358.04199900000003,-0.0958870652026707,0.0203959168063737,0.0328682970108922,1.56880013793707,-0.0265154972672462,-10.5213191986084
358.061998,-0.0334462633544507,-0.0040605538267271,0.0334087620205409,1.33096530437469,0.371362149715424,-8.27339105606079
358.082,-0.0918673379920986,0.0036316814258667,0.0333959707981564,1.0392660215497,0.0187889739871025,-10.0315627098084
358.10199900000003,-0.0732245065765264,0.0141793796500811,0.035962875165073,1.66307807564735,0.496002197265625,-9.35910663604736
358.122004,-0.0664292266172345,-0.0070443959631214,0.0354793288934887,0.680802011489868,-0.307903361320496,-9.45713195800781
358.141999,-0.0961448248808264,0.0322334202146596,0.0345453674958958,1.93277953863144,0.755118161439896,-9.82081956863403
358.16200200000003,-0.080599088129217,-0.0250764294656027,0.036507734745776,0.880157516896725,-0.0328974723815918,-9.04563932418823
358.182,-0.113465176136673,0.0344392681009253,0.0373574995329395,1.24775793552399,0.356432032585144,-10.9644250869751
358.201998,-0.0465472587306081,-0.0167151001748852,0.0370316057755841,1.76467130184174,0.290009707212448,-8.24122133255005
358.222006,-0.174939997341112,0.0136783983131705,0.0369170746939183,0.927997016906738,0.0729334354400635,-11.4770763397217
358.242001,-0.0389660162245396,0.0086281489248841,0.0365874037454542,1.60132547020912,0.588818493485451,-8.25572261810303
358.26215,-0.16692839035374,-0.0122594077958419,0.0404216897159346,0.834242862462997,-0.0372441083192825,-11.2365028381348
358.28323900000004,-0.0608686210911924,0.0467281278555661,0.0367866290344225,2.1558975815773,0.864259469509125,-8.89361143112183
358.302002,-0.194296350951796,-0.0431156659313867,0.0401785404951641,0.236529946327209,-0.245511251688004,-10.6906610488892
358.322004,-0.0457564370834887,0.067081452074008,0.0347258559663475,2.06602210104465,0.755858653783798,-9.0926570892334
358.341998,-0.21390392706763,-0.0436419501403226,0.0401218428586599,0.901446869969368,0.115481290221214,-9.94817914962769
358.362,-0.0500484253731508,0.0397306242428923,0.0359569494538777,1.41859093159437,0.48539906591177,-9.75960941314697
358.381997,-0.217761324542745,-0.0341355252755528,0.0390255659291358,1.20462499260902,-0.0672849416732788,-9.50580615997314
358.401999,-0.053586897222577,0.0228950981086344,0.0372500157676003,0.931189370155334,0.346189832687378,-10.1563432693481
358.422003,-0.158012753533313,-0.0096448302987976,0.0377416897704158,1.80402189493179,0.149495112895966,-8.92561655044556
358.441999,-0.110086820994935,-0.0102140308768848,0.0388424218727066,0.876159000396729,0.440475115180016,-10.1246790885925
358.461999,-0.13879893917464,0.0144400131750693,0.0391677673739448,1.37027587294579,-0.125360415503383,-9.34127283096314
358.48199900000003,-0.111776929843682,-0.0013807572283606,0.0405532328345667,1.29153479933739,0.746308314800263,-9.7626012802124
358.50201500000003,-0.111359187681162,0.0104712164958503,0.0382600067479682,1.75933063626289,0.0705330014228821,-9.27383317947388
358.52200400000004,-0.137958347971699,-0.0063116132536403,0.0416100353236448,0.711107748746872,0.658738178014755,-10.2452346801758
358.542002,-0.0664248973824015,0.0154979375651854,0.0388885885413203,1.65227990746498,-0.112575054168701,-9.19595794677734
358.562017,-0.193213780898655,0.0038553624648759,0.0397621167749776,1.55321336984634,0.982569393515587,-11.2356939315796
358.58263,-0.0345851439980023,-0.0042718393299235,0.0397058816999818,0.942504581809044,-0.22862566113472,-8.3493914604187
358.602005,-0.203314624347468,0.008615996224986,0.0392555333305471,1.3764813542366,0.676060643792152,-11.7872398376465
358.62201500000003,-0.0302436496279317,0.0037879384436312,0.0384141183230768,1.38694607615471,0.127791750431061,-8.03389940261841
358.64201,-0.195383570292563,0.0077043547665444,0.0374189572445761,1.39110912680626,0.71367578804493,-12.3281406402588
358.66199900000004,-0.0145729301297881,0.008159184171,0.037472285331178,1.42176514863968,0.212338441610336,-7.70991973876953
358.681999,-0.216788210651303,-0.0003161212577722,0.0363735852800577,1.06454589366913,0.305309683084488,-12.3916725158691
358.701998,-0.0144930197885246,0.018836701028203,0.0361955199312022,1.95361613631248,0.72495641708374,-8.44779262542725
358.72201,-0.211768771552386,-0.0241342440930922,0.0364866429825896,0.825062990188599,0.291442811489105,-12.1913414001465
358.742004,-0.0131345467093879,0.0394576292705546,0.0339104547173965,1.81770799160004,0.555098693817854,-8.93435106277466
358.762002,-0.186688521811645,-0.0506897285548828,0.0327425853867306,0.634900659322739,0.317489606142044,-11.0427056312561
358.78200100000004,-0.0494712449580506,0.048752640031033,0.0298514708537825,2.09589027166367,0.783502388000488,-9.92229776382446
358.802007,-0.210394906111739,-0.0540671222362486,0.0312612821054787,0.401283383369446,0.285582530498505,-10.7412199020386
358.82201200000003,-0.0322172736458992,0.0489239668718975,0.0271367248217413,1.7099094837904,0.537156504392624,-10.1146411895752
358.84201,-0.180369304759352,-0.0428488002541221,0.0266366802073938,1.37487373463809,0.760702338814735,-9.172376537323
358.862034,-0.0792422310562913,0.0065527459879379,0.024347702868979,1.14170755147934,0.425234732031822,-10.8834913253784
358.882653,-0.166949436192191,-0.0073841662106376,0.0230636404073384,1.70691394805908,0.681845784187317,-9.42258043289185
358.902014,-0.0786893673150363,-0.0246277453943687,0.0225970010666253,0.743145933747292,0.522921580821276,-11.7345615386963
358.92204300000003,-0.0987076937891801,0.0010689788171341,0.0163810327615633,1.86235924959183,0.714939746260643,-8.70632457733154
358.942023,-0.152580724290359,-0.0296243664098335,0.0173022105119857,0.902049076557159,0.625996711850166,-10.4917499542236
358.961992,-0.101332421422064,0.0280374144588475,0.0096513404259211,1.55569491386414,0.591250662505627,-9.54334306716919
358.982027,-0.126936828156944,-0.0512225804744052,0.0116335778173584,1.34266986846924,1.03868244886398,-10.8463966369629
359.00203400000004,-0.0662468979615808,0.0187005962103565,0.0024339979464798,1.2176464676857,0.321652323752642,-8.80178575515747
359.022036,-0.197951384158618,-0.0248855425935065,0.0014708814992713,1.36500387191772,0.935064141452312,-10.9073593139648
359.04203,-0.0303833588273163,-0.0114217879706136,-0.0027559685049142,0.855618357658386,0.587488484382629,-8.80924081802368
359.062034,-0.208024004253661,-0.008443181135671,-0.0076365995072288,2.06611852645874,0.956053674221039,-10.8243743896484
359.082038,-0.0323117121824577,-0.037259335884869,-0.0113429112465946,0.475668989121914,0.42587166428566,-9.02103500366211
359.102039,-0.16223350372584,-0.0042982354444132,-0.0168421520201211,1.54995287060738,0.597501572966576,-10.4648962974548
359.122049,-0.0947257318613826,-0.0340179086553304,-0.0190423986274059,1.47059301137924,0.9805135846138,-9.37555646896362
359.144291,-0.136338286890603,-0.0032523234647818,-0.0224438572251124,0.888468021154404,0.146625119447708,-10.5747424125671
359.16204500000003,-0.0597747040775722,-0.0322191508786324,-0.0251338867540414,1.52013985514641,0.620280618220568,-9.48157434463501
359.182048,-0.0797770411686471,-0.0378160993226474,-0.0286347584366868,0.944762480258942,-0.0145786315202713,-9.28547353744507
359.202051,-0.083690572814539,-0.0087937374227385,-0.0316562906955288,1.58415057659149,1.02301090955734,-9.86101331710816
359.222064,-0.0416959910408132,-0.0584234404716878,-0.0311542609016477,0.73486687541008,0.0828832946717739,-8.20863742828369
359.24206100000004,-0.105262575277306,-0.0126024295856289,-0.0322468756886266,1.1921734213829,0.35887668132782,-10.6856479644775
359.262217,0.0301033561901631,-0.046731517408768,-0.0348360388751451,1.37584919929504,0.624023208022118,-7.5276216506958
359.282067,-0.106084685857837,-0.0370769038985611,-0.0360734562460594,1.035919880867,0.125384122133255,-9.67671756744385
359.302067,-0.0039286460325558,-0.0315397028248841,-0.0361749120348136,1.24052163362503,0.474810338020325,-8.1100531578064
359.322081,-0.0573231359547216,-0.0484429792472233,-0.0358744032932108,0.478217834234238,-0.130686336755753,-10.1784088134766
359.342074,0.0605553118949129,-0.0066947630236297,-0.0418211295526864,2.35948578119278,0.980275410413742,-7.46173648834229
359.36210700000004,-0.0804080148358373,-0.0549280201764341,-0.0368317981420351,0.234230845049024,-0.240483233332634,-8.98935174942017
359.382081,0.0440374488186109,-0.0112589483285599,-0.0421387989948314,1.58768947124481,0.569661927223206,-8.53398752212524
359.4021,-0.0217223694556957,-0.0574024440664677,-0.0388327421694957,1.09584371447563,-0.0159817516803741,-8.47212839126587
359.422758,0.0697538891151936,-0.0116100643529285,-0.044304186715922,1.17904627323151,0.617423105239868,-8.24384937286377
359.442088,-0.0181575156213295,-0.0458059198760321,-0.0403626859002013,0.744042472541332,-0.128861907124519,-8.35658731460571
359.46209,0.0456838822306876,-0.0241091600441449,-0.0433592923906428,1.38633920550346,0.255972820520401,-8.51626815795899
359.482091,0.0410434710088212,-0.0341195746562747,-0.0416039301745665,1.15409960448742,0.186461365222931,-8.19404535293579
359.502092,0.0475529015381079,-0.0401432123007865,-0.0428390181671587,0.913682991266251,0.290060688555241,-7.91750106811523
359.5221,0.0578724889985311,-0.0129178472953957,-0.0422202334928355,1.34642981886864,-0.0456342160701752,-8.37770833969116
359.542098,0.0222152641332387,-0.0385694961425599,-0.0424143057424422,1.07168258428574,0.379714345932007,-7.95101642608643
359.5621,0.0921801091114547,-0.0135726807563335,-0.0439044772320993,1.51075923442841,0.138161360099912,-8.11158180236816
359.58211,0.000217543340183,-0.0289101932197641,-0.0419609277608361,0.735818493366242,0.427740561962128,-7.90527639389038
359.602106,0.127852632476621,-0.0207432039151252,-0.043219915553775,1.35498233623803,-0.0987046360969544,-8.0498969078064
359.622115,-0.035828140040618,-0.0086545793201765,-0.0432844435943586,1.4319395929575,0.567027398943901,-8.13663778305054
359.642115,0.117274881010992,-0.0302838856141158,-0.0446191887358175,0.749306666851044,-0.109737557172775,-7.94808177947998
359.66211500000003,-0.0178804359811282,-7.18029684200205e-05,-0.0437127632413183,1.0141305744648,0.306909185647965,-8.34739875793457
359.682117,0.110538466619777,-0.0186157889666567,-0.0461257198471303,1.81191136837006,0.139800214767456,-7.27061376571655
359.70163,-0.0457255264965098,0.0050563385583974,-0.0443185455341652,0.89030813574791,0.187649138271809,-8.93092613220215
359.722784,0.0952711340167923,-0.015693974813482,-0.0455328163650805,0.930756771564484,0.150371614843607,-7.19805316925049
359.74215200000003,-0.0129395978654796,-0.0065202384955318,-0.046997699896415,1.22913761138916,-0.107996109127998,-9.36927833557129
359.762118,0.0889787112807683,-0.0058771270865322,-0.0460937429747963,1.52035845518112,0.496510172635317,-6.92321825027466
359.782117,-0.0379361751059141,-0.0102274034969481,-0.0450631568812135,0.626490372419357,-0.277281285077333,-8.89468841552734
359.802119,0.0544193930664913,0.0254526377947183,-0.0458859505921814,1.74867342710495,0.382611433416605,-7.82270851135254
359.82214,0.033234676973221,-0.0215491710635084,-0.0445827226022535,0.516882559657097,-0.408578288555145,-8.71288080215454
359.842121,0.0423034287546567,0.0150933633144047,-0.0458485266674902,1.93989753723145,0.38769720941782,-7.85389070510864
359.862125,-0.0175600388405187,-0.0037269802226714,-0.0418044730773298,0.440255129337311,-0.284585905075073,-8.72056674957275
359.882127,0.0611398691481511,0.0183314138922778,-0.0427311234464568,1.47909160852432,0.0956427052617073,-8.79111862182617
359.902135,0.0403507208495998,0.0029318983017985,-0.0429680676200137,1.50138894319534,0.10805544257164,-7.84628276824951
359.922134,0.0193569632378711,-0.0008095820642033,-0.0408099861928801,0.956179064512253,-0.0918910086154938,-8.71951007843018
359.942131,0.0236738794708487,0.0087445597249003,-0.0398412128990928,1.04577531814575,0.0278836697340012,-8.77162675857544
359.961631,0.0310071313066445,-0.0008562610066674,-0.0365366848466437,1.46662687808275,-0.161900731921196,-9.25734577178955
359.982766,0.0587308694080562,0.0178119000309046,-0.0395351699901712,1.44205421209335,0.0656795620918274,-8.79886302947998
360.002141,0.0364952765960845,-0.008404400300762,-0.0347033556867975,0.681836158037186,-0.267576206475496,-8.65044059753418
360.022147,0.082110443586619,0.0150171928799932,-0.0369628910088818,1.73866811990738,0.0060027539730072,-9.24375314712524
360.042145,-0.0037125172452349,0.0057555304606811,-0.0298082253770892,1.34391255192459,-0.0053821384906768,-9.18081874847412
360.062145,0.112962185710959,0.00702830680028,-0.0344479516634879,1.12133436203003,-0.207995223999023,-9.33492622375488
360.082152,-0.003664606649901,0.0218641831442351,-0.0316473808234463,1.38728114366531,0.0369184613227844,-9.53599910736084
360.102143,0.102405753738389,-0.0074696726229223,-0.0320012976648494,1.0519330739975,0.0917067348957062,-9.04008808135986
360.122156,-0.0066844060785277,0.0230267072144827,-0.0289122655142593,1.72559461593628,0.151392334699631,-10.35159740448
360.142151,0.0748148214491025,-0.0086222938762324,-0.0294189403347094,0.901073920726776,-0.0831669837236404,-9.07012996673584
360.162152,0.0125011203299216,0.0165242973403199,-0.0301336362145486,1.16217550635338,-0.192944313585758,-10.4319446563721
360.18215100000003,0.040267858897197,-0.0013420102451895,-0.0280532097270561,1.70749493837357,0.322726069390774,-8.66044359207153
360.202152,0.0107008301998647,0.0103666594854792,-0.0282584544704937,1.01907976865768,-0.125282022356987,-10.5608644485474
360.222187,0.0165903683573166,0.0010679853988283,-0.0269909791236559,1.25366089344025,0.367822265625,-9.10125274658203
360.242807,0.0446993748622177,-0.0148763786462583,-0.0267389782652609,1.20413476675749,-0.295090246200562,-9.50627660751343
360.262294,-0.0264110491425788,0.0173948983455582,-0.0276069770661082,1.5778588116169,0.282703614234924,-9.49242334365845
360.282152,0.02055660745489,-0.0232494244258661,-0.0262929217280399,0.613731694221497,0.0566788583993912,-8.50685806274414
360.302152,-0.0419980055929351,0.0230050094341719,-0.0266858312736201,1.55940921902657,0.0058632791042327,-10.7567264556885
360.322154,0.06632445489689,-0.019973158402205,-0.0253707061732918,1.35558136701584,0.14540342092514,-8.28142890930176
360.342156,-0.0512028988254791,0.0025335314654859,-0.0276156544738094,0.93138399720192,-0.280423593521118,-10.2992700576782
360.362152,0.0362677853501655,0.0051181218858757,-0.0275244924540556,1.82684563398361,0.305611109733582,-8.62920074462891
360.382152,-0.0413624439500067,-0.0168399337843926,-0.0233718971725679,0.722474539279938,-0.516562962532044,-10.3994070053101
360.402153,0.0544111907075653,0.026574662403368,-0.0283216989857458,2.13014757633209,0.31898672580719,-8.78363809585571
360.422157,-0.0716876684541281,-0.0170954099793706,-0.024464625824483,0.60988382101059,-0.480062699317932,-10.4531030654907
360.442157,0.0666639796601257,0.0226374823003645,-0.027034813573242,1.74226048588753,0.378273892402649,-9.52871789932251
360.462026,-0.0377931406242844,-0.0237830776610004,-0.0214413775429319,1.27071782946587,-0.373616050183773,-9.60747566223145
360.482027,0.0275570573523807,0.0140559931431838,-0.0249725155198873,1.37142524719238,0.099169260263443,-10.0476634025574
360.502157,-0.0410284215145183,-0.0019508036856236,-0.0206530472683119,0.862060782313347,-0.261878669261932,-9.53561267852783
360.522161,0.0124476087811043,-0.0073901030479286,-0.0213882000137094,1.55076283216476,0.0071215867996215,-10.0281518936157
360.542029,-0.0200987757208697,0.0054741119686758,-0.0198137613694422,1.49029883146286,-0.158210039138794,-9.76682548522949
360.561629,0.0123409535548024,-0.0251168740068987,-0.0170307913025344,0.897326850891113,-0.0536789536476135,-9.72477178573609
360.582783,0.0074808169464259,0.0139001340608827,-0.0155797235412854,1.63492429852486,-0.450497543811798,-10.1133791923523
360.602029,-0.0372212514666116,-0.0210061975927427,-0.0130241535884002,1.32097259759903,0.249084684252739,-9.61721611022949
360.622033,0.0326040643123256,0.0011863855210732,-0.0155579095287839,1.3244205661118,-0.38877489566803,-9.61290321350098
360.641994,-0.0859338001802946,-0.0062685312950442,-0.0098546174483263,1.36752474978566,0.268288612365723,-10.0295372009277
360.661996,0.0735119750605826,-0.0092609633099086,-0.0084039232398205,1.22734372615814,-0.515076100826263,-9.88399667739868
360.681996,-0.0858679860103995,0.0093868624797995,-0.0063531682739719,1.67391798496246,0.151285845041275,-10.3014303207397
360.701996,0.061543006061246,-0.0207307048119327,-0.0063248444302536,1.19843491017818,-0.553238606452942,-9.41146306991577
360.722,-0.0815849389145546,0.008378810280779,-0.0036507097717619,1.09130941331387,0.0493483901023865,-10.8881025314331
360.741999,0.0768670416270574,-0.014332190418901,-0.0010802173869532,1.86060845851898,-0.167202618718147,-8.22262372970581
360.761995,-0.103068309419881,0.0044367936773144,-0.0007738449895097,1.31223527193069,-0.0055684357881546,-11.459349822998
360.781995,0.0733719401269937,-0.0083091346455188,0.0019514800397942,1.18460172861815,-0.202801847457886,-8.01460723876953
360.801996,-0.0707332229675514,-0.0160241656110108,0.0036216581360242,1.29569053649902,-0.360858514159918,-11.1703018188477
360.822059,0.0566709992108065,0.0100033892668831,0.0053153571128483,1.97086095809937,0.259651640057564,-8.59457702636719
360.841635,-0.073849933766675,-0.0183871861690399,0.0075853447212053,0.518239963054657,-0.509611132740975,-10.5088809967041
360.86525,0.0465888551778916,0.0281534650811078,0.0086076498038349,2.04536374807358,0.0475623726844788,-9.17127866744995
360.881996,-0.0276992370184493,-0.0265417395761787,0.0107790372128207,0.653976139426231,-0.411546212434769,-9.86509265899658
360.901995,0.0424064185242573,0.0195481211014139,0.0102094985316249,1.91200076639652,0.180878318846226,-9.25412111282349
360.922063,-0.0506156207092235,-0.030103107155001,0.0154984130874115,0.797912383079529,-0.275083401799202,-9.89409418106079
360.941994,0.0580074426205665,0.0155726201210298,0.0153717819032811,1.40726822316647,-0.186521278321743,-9.6584753036499
360.961995,-0.0106242059923768,-0.0199544543923546,0.0134271391155767,1.34560020565987,0.0240532100200653,-8.92205066680908
360.981995,0.001237161233989,-0.0069754805716094,0.0149950153755797,1.20580560564995,-0.0406793653964996,-9.82561836242676
361.001994,0.0019782837215136,-0.0037365844104673,0.0153679297885709,1.15563729479909,0.0272243201732636,-9.38408041000366
361.022032,0.0034564688552796,-0.0070786227923928,0.0169561574529491,1.43642233610153,-0.222400319576263,-9.85375747680664
361.041996,0.0072551456049966,0.0098862346163554,0.0102799009139836,1.76199442744255,0.209002605080605,-9.16630764007568
361.061996,-0.0259632709012381,-0.0161847400273363,0.0152627013064913,0.707683904469013,-0.0834394086152315,-9.4198808670044
361.082019,0.0280225779286678,0.0119633819238822,0.011351361087172,1.78175868988037,-0.179531905055046,-9.532204246521
361.101996,-0.0588039839537724,0.0057274612151728,0.0147025880853848,1.59429636001587,0.154491581767797,-10.4978658676147
361.12167,0.0532297745269128,0.0160312656727242,0.0109610190657059,1.08113849759102,-0.421244007349014,-9.39476594924927
361.142795,-0.0493560884477743,0.0139303453461188,0.0137682964558042,1.62296934425831,-0.133907070755959,-10.4885813713074
361.161995,0.0448264754137128,-0.0005276614775413,0.0126605859242897,1.0426992058754,-0.129714787006378,-9.10910444259644
361.181994,-0.050755189767148,0.0309855450240155,0.0128137722580189,1.8426755219698,0.163970336318016,-11.3382314682007
361.201996,0.0657972989465241,0.0063191241375582,0.0157801625215809,1.12043578624725,-0.217261752486229,-9.13610410690308
361.221997,-0.0423548516749235,0.0350133351030485,0.0130636025808615,1.33400067090988,-0.359838795661926,-10.9842687606812
361.241996,0.0263290091009011,0.0055818128112429,0.0129233064207503,1.76611919701099,0.294187818467617,-9.27375650405884
361.262304,-0.0206409991270812,0.0250210731154374,0.0146509362516183,1.23390914648771,-0.325367569923401,-10.8862190246582
361.281998,-0.0025535668118089,0.0216851147896935,0.0148970137660724,1.43220232129097,0.188390922546387,-9.89748725891113
361.301996,0.0083282559061488,0.0104309518658881,0.0114948662381563,0.977131044864655,-0.439235436916351,-10.1151502609253
361.321999,-0.034134264416682,0.0500914291531706,0.013620466035138,2.16303033828735,0.395934355258942,-10.5010235786438
361.341995,0.0140348964087632,-0.0092991358196201,0.015217065613038,0.488077163696289,-0.489680698886514,-9.43925619125366
361.361997,-0.0246878186172738,0.0610970893103969,0.0135168062141816,1.79275794774294,0.115763360261917,-11.907152557373
361.381997,0.0760399830705759,-0.0021396537720405,0.0151504050313348,1.61562495231628,0.0029827833175659,-8.82122602462769
361.401994,-0.0624467689863672,0.0237373726069933,0.0151359606368453,0.864731711149216,-0.493498967587948,-11.1641324996948
361.42167,0.0382655079512696,0.0368352263998464,0.0148254980639729,2.05092297196388,0.314115446805954,-8.99956102371216
361.442758,-0.0537458501880064,-0.0005221789163683,0.0175540405729763,0.601705753803253,-0.556429708003998,-11.4765977859497
361.461996,0.0901071115416967,0.044780034202771,0.0145750707195726,2.3970853805542,0.390424543619156,-9.02859601974487
361.481995,-0.0761673157905455,-0.0009588171544446,0.01882122675969,0.67581137418747,-0.641257333755493,-10.0365106582642
361.501995,0.0354713616621052,0.0497186310907328,0.0154090700659329,1.68755071759224,0.340718321502209,-10.1104969978333
361.521999,-0.0350563705746864,-0.007436509992863,0.0201197555129233,1.3395411491394,-0.33974671587348,-9.77945070266724
361.541994,0.0245078946186321,0.0238139816936437,0.0184227806795366,1.39477300643921,0.0641401767730713,-9.98922433853149
361.561996,-0.0727962143897177,0.0117491536867504,0.0206030139263735,0.923089262843132,-0.240968585014343,-9.95732851028442
361.581996,0.0443453369357525,0.0162957100482195,0.0203047966870227,1.47387171983719,0.0657580256462097,-9.80760202407837
361.601996,-0.030595132221643,0.0281591017505418,0.0207395465070888,1.80502688288689,-0.197499173879623,-9.43012809753418
361.621997,-0.0303695669665001,-0.0226201105295025,0.0220590176497563,0.560164016485214,0.142973077297211,-9.84437837600708
361.641995,-0.0006121393177925,0.0210754665336983,0.0207112696533702,1.66139033436775,-0.298153585195541,-9.73370161056519
361.661995,-0.0536362889202122,0.0056180216242544,0.0232404058968069,1.48691270947456,0.24841702580452,-9.4162410736084
361.681996,0.0125103414071847,0.0124250999794386,0.0208912595800468,1.13977720737457,-0.441649666428566,-9.25697660446167
361.701995,-0.0866599744032323,0.0064581780809269,0.0244564531154183,1.22619215250015,0.409735733270645,-9.79700984954834
361.724413,0.0421997438112132,0.0035384431464666,0.0251636078696648,1.39664412140846,-0.389543785154819,-9.0959963798523
361.741999,-0.0839150100137826,0.0190548503855105,0.0254847282952632,1.38292553424835,0.177878753840923,-10.28665599823
361.761994,0.0481880002052585,-0.0042144087914595,0.0247064242898972,1.2402310743928,-0.543106979131699,-8.19738960266113
361.781996,-0.118124243364909,0.0197476881035538,0.0244693170125127,1.15338601469994,0.166070872545242,-10.5255758285522
361.801994,0.0440805051738712,0.0083349035115712,0.0254776447599445,1.7612820327282,0.0410138845443726,-7.86453123092651
361.821998,-0.115078006439227,0.0058938541060697,0.0263049213405555,1.22773976922035,0.0456839710474014,-11.1741775512695
361.841994,0.0332946944472852,0.0127938040233579,0.0256312925899175,1.10715852230787,-0.0957718718796969,-7.74323539733887
361.861995,-0.0866538780129953,-0.0085815982876081,0.0249734946163041,1.04256264865398,-0.236194962263107,-10.9236366271973
361.881995,0.0297679000270519,0.0246941743402296,0.0258428493804674,2.2734103679657,0.556733071804047,-8.18303785324097
361.901994,-0.126251774799883,-0.0079252239659909,0.0274154178937645,0.196205621957779,-0.410749039053917,-10.3853907585144
361.922,0.0096058212605652,0.0375987068949319,0.0242744777724827,2.12874983549118,0.38278032541275,-9.41614599227905
361.942002,-0.0726151968379093,-0.0260556286211855,0.0258287353363284,0.916759088635445,-0.219175538420677,-9.99118223190308
361.962653,0.0008736300255962,0.0332601955021214,0.0226701549087645,1.54749730527401,0.283529442548752,-9.47732057571411
361.981994,-0.11058374367419,-0.0239545624865049,0.0262346517611682,0.992338117957115,-0.0763677299022675,-10.0436073303223
362.002001,0.0056144896807008,0.0199325549293671,0.0252601608378467,1.46957032829523,-0.0379878215491772,-10.6505917549133
362.022033,-0.0560293532506385,-0.0191615626626433,0.0217584168219576,1.24288835823536,0.218095719814301,-8.86114931106567
362.041995,-0.0303276194553902,0.0043436838436581,0.0217316498030906,1.11457333266735,0.0739960998296738,-10.0738620758057
362.061996,-0.0580043064819473,0.0034073921208413,0.020864010824911,1.51336232423782,0.20526510477066,-9.65379114151001
362.081994,-0.0446869066516951,-0.0110422545959783,0.0235006121323773,1.25665546655655,0.197535729408264,-10.2352750778198
362.101996,-0.0300426822764559,0.0128642536028511,0.0165397602460118,1.97035906501114,0.146060234308243,-9.43125381469727
362.121997,-0.0839300542705352,-0.0210716850815317,0.0195544693675183,0.686600181460381,0.0866751432418823,-10.3438642501831
362.141996,-0.0084813497985941,0.0057241064606104,0.0166214998831071,1.58262493610382,0.0231214582920074,-9.5057430267334
362.161998,-0.086136805501077,-0.0063247786797629,0.0188877735948196,1.73915712609887,0.357755215466023,-11.0076364517212
362.181995,0.0059370986358612,0.0018527768648569,0.0139581113167487,0.866856735944748,-0.232833376526833,-9.31896877288818
362.201996,-0.0863772106005557,0.0019811111405693,0.015030752749879,1.58838029503822,0.280142283439636,-11.067892074585
362.221999,0.0264466264312997,-0.006248900127818,0.0133770162914223,1.31819019317627,0.120004673302174,-8.85644311904907
362.241996,-0.102544153846095,0.0108632828254159,0.013106627547808,1.57273886203766,0.461276549100876,-11.571410369873
362.262142,0.0371525065470065,-0.0140945499174646,0.0137105663412967,1.11558073759079,-0.216372138261795,-9.39267854690552
362.281628,-0.0749835052800284,0.0135054061088409,0.0104646625153392,1.47687612771988,-0.0741769790649414,-10.9674570083618
362.302755,-0.0026350481518593,-0.019426435703523,0.0104906292838588,1.5081077337265,0.505183625966311,-9.13027229309082
362.322033,-0.0483351203904255,-0.002212412282696,0.0103150225654154,1.26470501422882,-0.0598151743412018,-10.8963512420654
362.341994,-0.0144124288616233,0.0039324105588534,0.0118195289640463,1.5830504745245,0.393108153343201,-9.97791242599487
362.361996,-0.0149691745449938,-0.0163426287935536,0.0078421708915478,0.578963351249695,-0.406863206624985,-9.80837001800537
362.381995,-0.0369971046998913,0.0280516747993079,0.0068897663439797,2.2866671204567,0.676693397760391,-10.4855884552002
362.401995,-0.0085954685045447,-0.0383966692909496,0.0087092670985201,0.695080578327179,-0.0453601330518723,-9.27477979660034
362.421998,-0.0343959927968267,0.0338024425808768,0.0075161810213522,1.45961499214172,0.210794359445572,-11.4933177947998
362.441994,0.0504185785022559,-0.023912273787458,0.0060615544315676,1.82671256065369,0.294866192340851,-8.60403985977173
362.461996,-0.0705479536622559,0.007008753634086,0.005013360840369,1.03846384882927,0.0455329090356827,-11.2522832870483
362.481994,0.0442949066052525,0.0048826373613772,0.0052895125242461,1.71467987895012,0.371299673616886,-9.020924949646
362.501996,-0.0612486584542879,-0.0199159114739097,0.0057218603208708,0.937573570013046,-0.0900193825364113,-11.7418207168579
362.521997,0.0916807230672792,0.0225915992288271,0.0011261626580998,2.22718955278397,0.789973795413971,-8.9774172782898
362.541996,-0.0638262249349883,-0.0245368751387188,0.0049954074240063,0.71490650177002,-0.307258239388466,-10.1925539016724
362.561993,0.0365550812539788,0.0315414603929078,-0.0010762104242151,1.89971181154251,0.82754625082016,-10.2079389572144
362.584254,-0.0344886736469987,-0.0325524485495979,0.0034559591854089,0.845644915103912,-0.140744192153215,-10.6531566619873
362.601995,0.0655311404865093,0.0396242659886539,-0.0023685520695844,1.94415807127953,0.557844179868698,-10.1374970436096
362.621997,-0.0740676612792498,-0.0247780252131548,-0.0001351892822101,1.06013635471463,0.15856157541275,-10.77042760849
362.641999,0.0971657130433394,0.0085990705188283,-0.0053397045905914,1.25424799323082,0.417888399958611,-10.5636259078979
362.661996,-0.0228387680475561,0.0007656486633836,-0.0049513440498239,2.01644072830677,0.342599782347679,-9.77063121795654
362.681996,0.0117107459311336,-0.0244866571509378,-0.0056344967679245,0.801228106021881,0.449285373091698,-11.0120710372925
362.701994,0.0112384786798279,0.0010657064430246,-0.0104432530666133,1.31797784566879,0.0488993726670742,-10.2861863136292
362.722008,0.004415507999005,-0.0096304592300129,-0.0103066033068057,1.43035113252699,0.830086601525545,-9.83774251937866
362.741997,-0.0001418653538665,0.0020229599667617,-0.0136246828253874,1.47389112710953,0.10814411342144,-9.92814912796021
362.761995,-0.0054190698123497,-0.0160302556096609,-0.0142642240596749,1.00293698310852,0.716463136672974,-10.6879456520081
362.781995,0.0495096496362366,-0.0100662822448579,-0.018285863656708,1.63110884428024,0.0235644698143005,-9.20523271560669
362.802017,-0.0920024324657704,-0.0020772793411404,-0.0187247530945303,1.22343810796738,0.895701671391726,-10.8272699356079
362.821999,0.0767300031640785,-0.015993033375044,-0.0220654236768679,1.33867800831795,-0.142622286081314,-8.46743612289429
362.841638,-0.101083022886423,0.0024441213915266,-0.0238322886187627,1.38404667377472,0.72955641373992,-10.7284999847412
362.86276,0.0616858843632672,-0.0157595122513387,-0.0247361839917672,1.14753850698471,0.053516697883606,-8.24121322631836
362.881994,-0.0834958396866872,-0.0022185858454263,-0.0276145821075696,1.57155357599258,0.534101946651936,-11.4283321380615
362.901995,0.0618473501100528,-0.0037353243209541,-0.0295456362632474,1.18140499591827,0.259948292374611,-7.32180433273315
362.921999,-0.0996173744951944,-0.01320996163456,-0.0326516411543809,0.837594320625067,0.0130402971059084,-11.1254682540894
362.941995,0.0603063430159438,0.016402002374423,-0.0341809774476094,2.18221678733826,0.581778764724731,-7.6543927192688
362.961996,-0.106794504187545,-0.028903736770134,-0.0347478624366311,0.454838521778584,-0.0424235224723816,-10.5652294158936
362.981994,0.0508147626116559,0.0224803410465053,-0.0365598091344515,1.81593933105469,0.366338360309601,-8.26046781539917
363.001999,-0.0739322673478974,-0.0428880146516731,-0.0375138107608296,0.891906577348709,-0.0469028294086456,-9.92107820510864
363.021997,0.0320803634881083,0.0292256254585548,-0.0386169091706112,1.73183135390282,0.353661625087261,-8.88652534484863
363.041996,-0.0811855360271641,-0.0375293188810804,-0.0355142454223273,0.444871473312378,-0.1676926612854,-9.42729434967041
363.061994,0.0179441935691791,0.0225155918982432,-0.0377057363841533,1.76081899404526,0.270516434311867,-9.53664264678955
363.081995,-0.0369651433330736,-0.0203765261521938,-0.0368472989237973,1.20948849916458,0.290264254808426,-8.83070297241211
363.101996,0.0159761472760113,0.0002211026255249,-0.0368986252600848,1.20663024187088,-0.0428707987070084,-9.45718994140625
363.122,-0.0509595011021787,-0.0038765229968024,-0.037774889566369,1.50245869159698,0.293572646379471,-9.18654708862305
363.141637,0.0145021817732,-0.0129623587501474,-0.0357391667842755,0.86059220507741,-0.052593320608139,-10.1148923873901
363.162761,0.0094858916552573,0.0063505254711681,-0.0406274902907036,1.96935499310493,0.183130788430572,-8.52777986526489
363.181996,-0.0485228750298723,-0.0138190079125586,-0.0379032955994802,0.846043427288532,0.0758568048477173,-9.8406909942627
363.201996,0.039713008082605,0.0020933763159213,-0.041815613376501,1.45538942813873,0.226585477590561,-8.88856534957886
363.221999,-0.0767392567614988,0.0032802574217016,-0.0377413630893097,1.54753537215292,0.390977302193642,-9.52397842407227
363.241994,0.0233361596799059,0.0178676782258027,-0.041162111496159,1.17179987430573,-0.316016557067633,-9.24219903945923
363.262143,-0.0618319840250656,-0.0005690107834662,-0.0401030946773221,1.29852673411369,0.0137591779232025,-9.81684408187866
363.281996,0.0443326903526113,-0.006331734146619,-0.0401154489045458,1.30149894952774,0.0816194921731949,-8.66031703948975
363.301995,-0.0734071875979964,0.0214148330459778,-0.0374686146665169,1.70815295577049,0.136121988296509,-10.4196418762207
363.322033,0.0402948536459365,-0.0081879029911136,-0.0359848167725863,0.670330989360809,-0.328455939888954,-8.79032793045044
363.341994,-0.0467121477047895,0.0207848506665645,-0.0383696949005978,1.81370434761047,-0.166675090789795,-10.5856964111328
363.361996,0.0295859752249975,-0.0103323808133366,-0.0347134960577133,1.39987637996674,0.368668602406979,-8.75759582519531
363.381996,-0.0080440289627136,0.0076420567683705,-0.0333497695676287,1.13449334427714,-0.35787073969841,-10.3271967887878
363.401996,-0.0142797834309833,0.0043498213057589,-0.032582671671106,1.5730112105608,0.245907604694366,-9.42850303649902
363.422035,0.0234887867497849,-0.0066015542757281,-0.0339139691432676,0.832041300833225,-0.39419664144516,-9.42557277679443
363.444253,-0.0498596202645674,0.0240199550779834,-0.0330970670550317,1.76417472362518,0.612717239558697,-9.10913486480713
363.461996,-0.0154868159081426,-0.0171246126958727,-0.0326922821777915,0.922933214902878,-0.0269072964787483,-8.98935222625732
363.481995,-0.0445101564310174,0.03131172119482,-0.0332239249037702,1.29600496292114,0.0111801981925964,-10.5695825576782
363.501995,0.0486021827865302,-0.0142883769195163,-0.0307843471019618,1.65690540075302,0.165007078647614,-7.90126276016235
363.522007,-0.0951690866511654,0.0066386822936203,-0.0335043039343717,0.994628620147705,-0.307701086997986,-10.3159064292908
363.541996,0.0186884336419666,0.0031651786757321,-0.0345376294147376,1.39412221610546,0.131862279772759,-7.94269733428955
363.561996,-0.0943549185050275,-0.0107467999425035,-0.0307238481283542,1.05420159101486,-0.397633504867554,-10.0712448120117
363.581996,0.0200608240168117,0.0398875272843805,-0.0329547231015083,2.02195699214935,0.421549910306931,-8.5826057434082
363.601994,-0.0741137924390475,-0.0242052613845747,-0.030007199737092,0.146931973099709,-0.680303099751473,-9.4893967628479
363.622007,0.0116325015451489,0.0224970404357455,-0.0321680489580613,2.19441802501679,0.386425828933716,-8.44298439025879
363.641995,-0.0881693903691105,-0.0085516520460919,-0.0255179858522236,0.999410724639893,-0.480468463897705,-9.128542137146
363.662016,0.0197175040713339,0.0241485490710933,-0.0281738260728632,1.36921441704035,0.133890652656555,-9.28112859725952
363.681995,-0.0785035591505138,0.001343998383791,-0.0239719788801121,1.07558722496033,-0.346635210514069,-9.13642263412476
363.702002,-0.0167391853312509,-0.0016690606430411,-0.0240635404924074,1.27763866782188,-0.0627846598625183,-9.51900367736817
363.722792,-0.0337466568107646,0.0107095261017408,-0.0221906478833501,1.56631599068642,-0.190747076272964,-8.90498037338257
363.741997,-0.0422184047888173,-0.0091834031196246,-0.0213503987486681,1.08497948274016,0.0090136408805847,-9.13905210494995
363.761996,-0.0337503583680955,0.0148299276703921,-0.0207642807646089,1.18732430934906,-0.399341353774071,-9.74578733444214
363.781994,-0.0387268342854055,0.0004145604542541,-0.0188242227568492,1.52677792906761,0.179250681400299,-9.0736741065979
363.801995,-0.0069971616035954,0.0146368645813329,-0.0214820209335969,1.4017772436142,-0.397508710622788,-9.19717617034912
363.821997,-0.0901484059273196,0.0021405514349061,-0.018036354807012,0.937104052305222,0.308373218774796,-9.42448997497559
363.841995,0.0442134758948554,0.002262372402497,-0.0180994222516355,1.71253097057343,-0.43544072508812,-9.26119022369385
363.861996,-0.126806277628079,0.0188932646781085,-0.0168052317288019,1.45850637704134,0.0973152756690979,-9.8553656578064
363.881997,0.0324505911857267,-0.0086167861038001,-0.0183338360669723,0.870308643579483,-0.560909283161163,-8.93743467330933
363.901997,-0.114304664199068,0.0114326052579229,-0.016526300037536,1.51511824131012,0.259044480323792,-10.4792503356934
363.922001,0.0522976468933444,-0.007654406290676,-0.0131057669324737,1.60472233891487,-0.100469523668289,-7.96328315734863
363.942002,-0.123988042335761,0.0149316147399005,-0.0130932204841933,1.1016462802887,-0.237684643268585,-10.697034072876
363.962628,0.0326477835949856,0.0123459716606637,-0.0130836529888406,1.54993245005608,-0.138261866569519,-8.32698879241943
363.981996,-0.0980124870413035,-0.00133124169373,-0.0118749001095515,1.01781092882156,-0.469579750299454,-11.2240346908569
364.001995,0.0271696253967393,0.0207861016421482,-0.010138626367632,2.13948808908463,0.213043233007193,-8.10452089309692
364.021999,-0.124578961111728,-0.0250465364873104,-0.0082926131628439,0.571613192558289,-0.31693547219038,-11.3718023300171
364.041995,0.0624036290892199,0.0272046344911197,-0.008016892415436,1.9710476461798,-0.0310501933097839,-8.77645387649536
364.061994,-0.0774064935701888,-0.0243920462782595,-0.0069199256975726,0.829867623746395,-0.509832516312599,-9.54563407897949
364.081996,-0.0236953211734156,0.0293284171185534,-0.0080267256942756,1.75873432978988,0.181264859437943,-9.88030815124512
364.101996,-0.0782611118206706,-0.0207992473312873,-0.003428769226954,0.556865830719471,-0.282016050815582,-10.1465634346008
364.121999,0.0242687800278854,0.0298750087009326,-0.0028253563412216,1.85399917960167,-0.204438605159521,-9.91481065750122
364.141994,-0.0718066523413062,-0.0153665731150785,-0.0031640835764525,1.48660126924515,-0.0105136066675186,-9.17303600311279
364.161995,-0.0029190519223867,-0.0040394887543339,-0.0005924520022511,0.935560125112534,-0.279780021309853,-10.1080911636353
364.181996,-0.045594755161991,0.0015406058444894,-2.4197085424234e-05,1.66587246656418,0.0633498668670654,-9.59385805130005
364.201996,-0.046315100671982,-0.0132485664641049,0.0051244691163063,1.35893189907074,-0.275700187683105,-10.605676651001
364.222003,-0.0013363977217502,0.0144316659993559,0.0010821705271781,1.71456453800201,-0.0888686299324036,-9.3146203994751
364.242752,-0.0717311904261344,-0.0167706246297031,0.00584536518309,1.0467155855149,-0.13555084913969,-9.74594478607178
364.262144,0.0110465418120459,0.0111909612558579,0.0061220584799768,1.46173598766327,-0.110767638683319,-9.70110998153687
364.281996,-0.0720970621611381,0.0015438740759037,0.0112179346993079,1.59468083381653,-0.0314038187265396,-9.96639280319214
364.301996,0.022795820963279,0.0009781733058918,0.0070002362231911,1.24711027145386,-0.376016575098038,-9.56409797668457
364.321997,-0.0825527700410937,0.0137041549878628,0.0106301138308015,1.45045157745481,-0.0525921229273081,-10.101771068573
364.341995,0.031973205220248,-0.0149267131029553,0.0129254497328773,1.18495463877916,-0.13572482354939,-8.93316373825073
364.361994,-0.0792050774720517,0.0171639249793928,0.0139569876994513,1.94937900304794,0.0922948837280273,-11.0510581970215
364.381995,0.0243474414353221,-0.0181650804194662,0.0167809861909511,0.742608404159546,-0.353391417115927,-8.8051685333252
364.401995,-0.040720144390901,0.0108721910404204,0.0163284946277522,1.39059048146009,-0.327082002162933,-10.5445905685425
364.421997,-0.0023575246218688,-0.0040289379606879,0.018141425629949,1.86917194128037,0.277092136442661,-8.64549961090088
364.441996,-0.0332149175008067,0.0042293968259202,0.0197249928806047,0.803775995969772,-0.337151277065277,-10.3273448944092
364.461996,-0.0250662720504553,0.0066763131163454,0.0223502240284983,1.74740047454834,0.220323145389557,-9.47143983840942
364.481996,0.0104344994333207,-0.0125659221434758,0.0235287014995479,0.951980993151665,-0.542751470953226,-9.8113166809082
364.502002,-0.0393438506206974,0.0215599701229589,0.0222844463143208,1.76186575889587,0.418209135532379,-9.58676748275757
364.5254,0.0001713849569598,-0.0279099444381231,0.0248873750851317,1.02889367341995,-0.151751080155373,-9.20270900726318
364.541995,-0.0563504746231387,0.0230303930295719,0.0271253823590451,1.44499394893646,0.0274813532829285,-11.1051082611084
364.561997,0.0559627546910004,-0.017226020311,0.0259991909092137,1.4376708984375,-0.0462168574333191,-8.39306058883667
364.581995,-0.0812930056703514,0.0065979005961174,0.0253066127606146,1.34101630151272,-0.0606924831867218,-10.8614261627197
364.601994,0.0326948565669433,-0.0019681040541749,0.0282334415871316,1.46069232076406,0.316531717777252,-8.61286821365357
364.622009,-0.0427575240143439,-0.0089503078649845,0.0297258065747087,0.745594611763954,-0.447579002380371,-10.9736057281494
364.641994,0.0455472537761695,0.0282942378878909,0.0244440049081953,2.48615631461144,0.666852045059204,-8.47766599655151
364.661996,-0.0851956040926501,-0.0210452331442243,0.0298483470248861,0.293655896186829,-0.455559873580933,-10.3755805969238
364.681994,0.0441551304421593,0.0360470169735631,0.0257693044679026,1.9733628153801,0.411859089136124,-9.26366767883301
364.701995,-0.0734034137210439,-0.0371540860974999,0.0288956772158293,1.18652856051922,-0.0525350034236908,-10.3555054664612
364.722041,0.0707217182295665,0.0214003255197727,0.025169861208868,1.61133458614349,0.359292501211166,-9.63410367965698
364.742027,-0.0600401428922517,-0.0139164948661657,0.0301485721694127,0.960055530071259,-0.271066433191299,-9.53164548873901
364.762777,0.0194736581675957,0.0061226970616445,0.0261838741544489,1.39722521305084,0.29358988404274,-10.2763670921326
364.781994,-0.0313532731377208,0.0008795779889828,0.0249809722994791,1.40772192776203,0.13689933270216,-9.29675807952881
364.801996,0.0083033019674211,-0.0115316228930156,0.0267354510562161,1.18615842461586,0.244678418338299,-9.99641027450562
364.822007,-0.022090898411562,0.0049147704725012,0.026414726909003,1.40280555486679,-0.180470655113459,-9.944065284729
364.841996,0.0142424804729916,-0.0080079083743142,0.0253209791540718,1.17355914115906,0.473214596509933,-9.73257751464844
364.861994,0.0128761910749389,0.0048823352997168,0.0228065468745688,1.74461456537247,0.0153776526451111,-9.34500579833984
364.881996,-0.0570289536413014,-0.0055291548943595,0.0253145317000084,1.01097601950169,0.456295284628868,-9.92105159759521
364.901995,0.0609922095248893,-0.0057965694195551,0.0227783940649804,1.37089796066284,-0.230809545516968,-9.41718635559082
364.922007,-0.062177517945214,0.0004192854940215,0.0224257702179265,1.64314126372337,0.774000528454781,-10.3981653213501
364.941995,0.0649255962210916,-0.0137183623610062,0.0216309825467746,1.00535423159599,-0.344624358415604,-8.79250955581665
364.961998,-0.0715451895671043,0.0125461874088699,0.020342662578109,1.19530258476734,0.507775974273682,-10.7519077301025
364.981996,0.0923623611864287,-0.0109493498035407,0.0195936649453968,1.70264939069748,0.0593910694122315,-8.03106575012207
365.001994,-0.0880915345679343,0.0071005443374251,0.0192931962103932,1.2372986972332,0.33368730917573,-11.2269582748413
365.021999,0.0870154583670432,-0.0038226052271314,0.0188089279262192,1.10816856622696,0.0771977782249451,-7.7581057548523
365.041996,-0.072051331755316,-0.0036435130816832,0.0148636515764678,1.33523891866207,0.109434322267771,-11.4722171783447
365.061994,0.0907410722104793,-0.0039769854856135,0.0153252085403629,1.89710564613342,0.750199437141419,-7.88297662734985
365.082002,-0.0705083927448973,-0.02025083488642,0.0156254219669802,0.648932862281799,-0.179012733697891,-10.9029350280762
365.102626,0.0662419921819405,0.028983798023865,0.0134460938398602,1.73340666294098,0.43252084851265,-8.84147605895996
365.121998,-0.0313225253438674,-0.033772707261727,0.012291884869029,0.567906361445785,-0.0582401275634766,-10.0753108024597
365.141994,0.0513633520975611,0.0297416887211535,0.0105691726540733,2.21487755477428,0.61517288684845,-9.00815410614014
365.161996,-0.0516676342426655,-0.037793026581804,0.0139677118353003,0.513268280029297,-0.0623160004615784,-10.0897791862488
365.181996,0.0742741256321505,0.0218713954581928,0.0109803813720145,1.57262735664845,0.186573719233274,-9.46402225494385
365.201999,-0.0194627666668612,-0.0295166764566366,0.0100177142333885,1.42543629407883,0.363649988174439,-9.01186609268189
365.221997,0.0422337498052404,-0.0021222946955802,0.0105224705125161,1.07609046399593,0.144691394269466,-9.72408809661865
365.241996,-0.0177668521267169,-0.0161342680331591,0.0102952699580388,1.27721081972122,0.26941237449646,-9.14351043701172
365.262141,0.0205939719614959,-0.0065398837479217,0.0119344876902181,1.34313054978848,0.21214457154274,-10.0582454681397
365.281995,0.0342630544184556,0.0026374397593814,0.0087739629774402,1.60001816749573,0.41198096871376,-8.82209987640381
365.301995,-0.0058232147615463,-0.0236385693859673,0.012093791246023,0.848670357465744,0.108684399724007,-9.19994459152222
365.321997,0.0297657844118013,0.0033990009141962,0.0075588306434701,1.67128545045853,0.253211772441864,-9.35096168518066
365.341997,-0.0103337431682395,-0.0136777806964995,0.0130204135631855,1.2844634115696,0.348711344599724,-9.75724296569824
365.361996,0.0690500613002704,0.0047036561217973,0.0076976167911856,1.36423019170761,-0.0244979225099087,-8.94717950820923
365.384245,-0.0419226419188206,-0.0021851537034544,0.0098863033259142,1.32509295940399,0.310280525684357,-9.58833532333374
365.401994,0.0718713214702516,-0.0157656661658574,0.0081170922573722,1.0513980910182,0.297032105922699,-8.84039182662964
365.422008,-0.026109025106644,0.0056250860439939,0.0102387915292914,1.80371210575104,0.44809131026268,-10.1995470046997
365.441995,0.0635538197640825,-0.0133651741013238,0.0096762727930432,0.779861533641815,0.0188494428992271,-8.59255027770996
365.461995,-0.0139446223091437,0.0116556047643926,0.0070969473239664,1.45562478303909,0.174987614154816,-10.4044178009033
365.481996,0.0597990948464799,-0.0158578191183,0.0085130887026803,1.62867695689201,0.507670318335295,-8.29881715774536
365.501994,0.0023153927016417,0.0037880532554692,0.0087792966383119,1.19752828478813,0.0827722433954477,-10.425829410553
365.522027,0.0324727108107703,-0.0105643153439667,0.0081700450157901,1.21879453659058,0.503332757949829,-9.05320863723755
365.541994,0.0412757909580571,-0.0110611145117234,0.0064208826389679,1.1988278567791,-0.15780126452446,-9.57160243988037
365.561996,0.0080076787654335,0.0088880119085676,0.00727802124602,1.64536043703556,0.749967969208956,-9.41620759963989
365.581994,0.0372002286349141,-0.0256638196121724,0.0067839453085351,0.695839154720306,0.0835241101682186,-8.73776416778565
365.602028,-0.0003948695138545,0.022203168291832,0.0072457760306053,1.66361519098282,0.48451115489006,-10.6100282669067
365.622012,0.10039950185313,-0.0304898052617808,0.0071212929227013,1.15990476608276,0.281398820877075,-8.4365442276001
365.642633,-0.0220088316199096,0.0057248023150391,0.0048914316670594,1.27238464951515,0.0770341575145721,-10.1056756973267
365.661995,0.0585959056068269,-0.0084293203285706,0.0037693186266628,1.66560486108065,0.600024545937777,-8.59190311431885
365.681994,-0.0060127018761202,-0.0132284540340607,0.0066340087046475,0.640609746426344,0.0173654109239578,-10.7918098449707
365.701996,0.10323798048466,0.0141468074132674,0.0011168442866811,2.21812492609024,0.70844601392746,-8.18186073303223
365.722007,-0.0438272554556261,-0.0221669657520447,0.0036686298685566,0.708817163109779,-0.247915136814117,-10.1111597061157
365.742033,0.0756298183710032,0.0182925382488304,-0.0009826115019306,1.63721668571234,0.809572985768318,-8.97157888412476
365.761994,-0.0042024801965756,-0.0360175497459733,0.00368018519597,1.08268133401871,-0.0004718124866485,-9.78274126052856
365.781996,0.0758486128051327,0.0210919284207438,-0.0010231160817915,1.65424691438675,0.638622036576271,-9.71161727905274
365.801995,-0.0131951649926169,-0.0245330582369176,0.0025793822535915,0.583341702818871,-0.0419039666652679,-9.36485986709595
365.822008,0.0645997889868842,0.0063130943855323,-0.0016205112052716,1.73174496293068,0.524669323116541,-9.47774896621704
365.841998,0.0073844597501823,-0.0077405408539138,-0.0005606226838425,1.49645855426788,0.31170862019062,-9.39287357330322
365.861997,0.0505156095966437,-0.0256962464995664,-0.00117758442433,0.878008460998535,0.315615823864937,-9.5613073348999
365.881997,0.0128518451655018,0.0009647925188009,-0.0023399333473433,1.539124584198,0.114758867025375,-9.7931529045105
365.901997,0.037308785106786,-0.0232623785153528,-0.0027493330945508,1.08584308624268,0.686473888158798,-9.19334802627563
365.922002,0.0483735453086366,0.0012551077446268,-0.0045478217181232,1.51537683010101,0.10443908944726,-9.05340185165405
365.942017,-0.0472926171831427,-0.0242564804694429,-0.0024021392075376,1.15983206629753,0.588445118814707,-9.31551990509033
365.962645,0.083533542000495,-0.0170134363687693,-0.0046673825939688,1.23606634140015,-0.0379916250705719,-9.38635587692261
365.982012,-0.0352999262826268,-2.15497085486183e-05,-0.0038818022108232,1.45269459486008,0.826361982524395,-9.37031145095825
366.002012,0.0735926790238812,-0.021585944703418,-0.0054662399157143,1.18677826374769,-0.138023829460144,-8.63494472503662
366.022023,-0.0591598944968249,0.0054780710241032,-0.006305712468894,1.07401290535927,0.577136921882629,-10.1802248954773
366.042013,0.112514963064224,-0.0183665980392256,-0.0043800287959902,1.69779058694839,0.182745933532715,-7.98061923980713
366.063,-0.0770948455946793,0.0031768414279477,-0.0062693931531872,1.44897658228874,0.339183789491653,-10.8595045089722
366.083,0.0961053762434533,-0.0249244871240567,-0.0070129614583594,0.924693167209625,0.299499303102493,-7.74065361022949
366.102999,-0.0575288008266326,-0.0131404643719183,-0.0068490485327548,1.27907135486603,0.0863384604454041,-10.9591775894165
366.123005,0.0855443486015683,0.0113817932076522,-0.0073822372829866,1.91365312337875,0.728304928541183,-7.9386736869812
366.143002,-0.0487174032126751,-0.0244782288967614,-0.0074508844349852,0.457297766208649,0.0322601549327374,-10.4966596603394
366.162999,0.078915557051888,0.0215067865868284,-0.0081268608805763,2.14483145475388,0.525197368860245,-8.43812084197998
366.182997,-0.0286913807945012,-0.0424363226286452,-0.0077866228340015,0.636090314388275,-0.0212349146604538,-9.9527548789978
366.203002,0.070256870308615,0.0197457291413626,-0.0102721852033794,1.91279255747795,0.559456127882004,-9.26803207397461
366.223002,-0.0423043233400917,-0.0403659475033033,-0.0077678577267948,0.732497614622116,0.0647273004055023,-9.88500871658325
366.245286,0.0812215725854302,0.0149746021858649,-0.0095819050669817,1.41394227743149,0.311989343166351,-9.7347861289978
366.263011,-4.1788875474863e-05,-0.0297138236513365,-0.0103464259703728,1.37168519496918,0.462536272406578,-8.65314950942993
366.282999,0.028407674587851,-0.0120771803403135,-0.0106839109888612,1.27286011576653,0.226626241207123,-9.98278646469116
366.303002,0.0042536739666172,-0.0148826816978038,-0.010927680667008,1.10035907030106,0.500795203447342,-9.14839639663696
366.323002,0.0306586851901424,-0.0115377500575597,-0.0094544074677437,1.30515622496605,0.181488257646561,-9.72944555282593
366.342999,0.0263110298037899,0.0012394755506552,-0.0141236528246034,1.85756232738495,0.502751696109772,-9.14932680130005
366.362998,0.0084387572106623,-0.0310698813024539,-0.0100325863907467,0.654697114229202,0.189773908257484,-9.39452848434448
366.382999,0.0490890271169342,-0.0033758432481014,-0.0136990218334381,1.67307118177414,0.282250562310219,-9.10680828094482
366.402997,-0.0249324918764223,-0.0125487399601,-0.0100690242356207,1.44763394296169,0.473786908388138,-9.93386993408203
366.423038,0.0866806982950861,-0.00794346767802,-0.0149964921872325,1.13264390826225,-0.0405438855290413,-8.9798150062561
366.443,-0.0335615601837311,-0.0036944397070665,-0.0140263967818669,1.41766632795334,0.376760709285736,-9.34403409957886
366.462057,0.0774391814473796,-0.0219230311946294,-0.015476985765915,1.03369202017784,0.439799919724464,-8.88686666488647
366.483023,-0.0260042923424296,0.0073178882364256,-0.0137453480549977,1.68726080656052,0.350540390610695,-9.74293842315674
366.503645,0.0604692219544205,-0.0191091379203177,-0.0148725568324043,1.00599674582481,0.166744378209114,-8.58867044448853
366.523019,-0.0107079409881996,0.0073427177167537,-0.0168283418130834,1.31796099022031,0.021746152639389,-10.1963823318481
366.54301,0.0400561231422151,-0.0134624480168309,-0.0149840063406646,1.58413898944855,0.552067456766963,-8.16349678039551
366.56301,0.0112139622097118,-0.0036750549710226,-0.0156408349236044,1.2705309510231,0.0914788827300072,-10.0799291610718
366.583014,0.0304276832985616,-0.002825572597308,-0.0154764750307798,1.25522359609604,0.427646923065186,-8.99664793014526
366.603015,0.0495091917352604,-0.0192875422600022,-0.0152506365944799,1.06932574510574,-0.146257866919041,-9.43670339584351
366.623024,-0.0045851781168829,0.0129411326748649,-0.016315821057911,1.76057977676392,0.598576641082764,-9.38115720748901
366.64302,0.0416351733164016,-0.0272144777657142,-0.0156594879413156,0.544456323236227,0.106474974378943,-8.79740686416626
366.663025,-0.004124058947097,0.0219682888375563,-0.0148682355278735,1.59494413733482,0.275565457344055,-10.2226264953613
366.683032,0.0833266397055317,-0.0194900392129037,-0.0143022255944379,1.53826714754105,0.338936960697174,-8.49226484298706
366.703027,-0.008216355317564,0.0082958309125583,-0.0173562385957114,1.00136503875256,0.0596825361251831,-10.265092086792
366.723036,0.073737581505952,-0.0125023820765128,-0.0150956051043144,1.61358557939529,0.544690412282944,-8.22465744018555
366.743038,-0.0226745033183581,-0.0120234818865901,-0.0119486128604527,0.948542553186417,-0.270555704832077,-10.8544919967651
366.763053,0.0988271710121736,0.0145331568234751,-0.0175420633310146,2.05051144361496,0.695448780059815,-8.38303165435791
366.783676,-0.0320068588188683,-0.0238790082188211,-0.0142103333950667,0.753109478950501,-0.344753682613373,-9.81511754989624
366.803041,0.0664691219555115,0.0216260927461014,-0.0165804547693717,1.67839912176132,0.711692451685667,-9.20685214996338
366.823048,0.0005336011777306,-0.0318275217809531,-0.0119064840176564,0.916880655288696,-0.137123361229897,-9.50587253570557
366.84305,0.0766622007816051,0.0212331801822718,-0.0172464796621755,1.81075862944126,0.436300766468048,-9.43175306320191
366.863048,-0.0252395599248586,-0.0092834956065742,-0.0134106455073223,0.648512536287308,-0.0176490485668182,-9.29027891159058
366.88305,0.0612525170789477,-0.0003868422725722,-0.0153431728054086,1.45216613262892,0.244007301330566,-9.65738840103149
366.903053,0.0110398726646086,0.0016435814105636,-0.0145987685931197,1.79819982647896,0.24992428123951,-9.17311115264893
366.92306,0.0352617197436335,-0.0293188930623187,-0.012910242845748,0.726837089657784,0.276371943950653,-9.5977165222168
366.943061,0.0361179696242053,0.0071594274231844,-0.0133900931230493,1.40800926685333,-0.133785870671272,-9.41331834793091
366.962994,-0.0050998703545095,-0.0180859832300865,-0.012294854352939,1.34567686021328,0.572749483585358,-9.1473916053772
366.983062,0.0521570086945642,0.0040784384336625,-0.0142419244049348,1.255179515481,-0.107922853529453,-9.49223594665527
367.003065,-0.0260871052926664,-0.0113038324187436,-0.0113195698075823,1.22503281831741,0.536142426729202,-9.14173698425293
367.02308,0.0826407980527573,0.001370407828882,-0.0123367322667697,1.39778153896332,-0.168616616725922,-9.37289772033691
367.043704,-0.0580244305115381,0.0040561107269578,-0.011543864083842,1.32520914077759,0.615423780679703,-9.25882081985474
367.06307,0.0982930563991582,-0.0157560598475326,-0.0114514950010734,1.35986471027136,-0.280076038837433,-8.97446603775024
367.083074,-0.0769402257700527,0.0158248891893475,-0.010736094626327,1.16484993100166,0.335675194859505,-10.1458541870117
367.103077,0.101832679326033,-0.0185762817397373,-0.0110168560868756,1.45146729946136,0.0689723968505859,-8.10566787719727
367.123086,-0.070912287534486,0.0139389098061948,-0.0092889677518279,1.56992400288582,0.268491171300411,-10.8631757736206
367.14308,0.0905185820187922,-0.0018607066344396,-0.0082483434343564,0.94454016238451,0.0534221410751343,-7.8501410484314
367.163087,-0.0415961319651467,-0.004828208028032,-0.0102157395611053,1.0523106329143,-0.158095203340054,-10.9985015869141
367.183094,0.0929292892594805,0.010090182755381,-0.0080811613600264,2.20724312067032,0.611851507425308,-7.83086023330688
367.203095,-0.0588038182459649,-0.002390313225734,-0.0064315106051071,0.457543730735779,-0.184233865141869,-10.6993114471436
367.223109,0.0800998951346372,0.0338926827917701,-0.0066961150957713,1.99526926279068,0.300044083595276,-8.63522338867188
367.243101,-0.0146874182457867,-0.0237853530659224,-0.0064309558390402,0.973191952705383,-0.20196321606636,-10.2344115257263
367.263116,0.0737371333255142,0.0257842875311292,-0.0070643320918948,1.75311557129025,0.461434088647366,-9.17428216934204
367.283124,-0.0308531132380844,-0.0194412499815114,-0.0039754571195987,0.708777618408203,-0.183086094260216,-9.64733629226685
367.303741,0.0580857903076148,0.0289931621720655,-0.0043817102937736,1.6166322350502,0.212519580125809,-9.99931335449219
367.323151,0.0205281161279235,-0.0094864220977853,-0.0035128736328247,1.04761957079172,0.106147313117981,-8.82556781768799
367.343113,0.0450934546600069,0.0114757245599571,-0.0044209863287108,1.50110809449106,0.0755121182650328,-9.9095009803772
367.363115,0.010141444702349,0.0106999519780757,-0.0021955241567018,1.3270623922348,0.28546340316534,-9.59314222335815
367.383111,0.055007366622906,-0.0071662197270315,0.0007072247306561,1.06199345588684,-0.0900555372238159,-10.1368627548218
367.403114,0.0570198310714117,0.0179375243625605,-0.0039306634659304,2.04842672049999,0.28348456248641,-9.18830709457398
367.423121,0.0122498818458037,-0.0051945127116711,0.00018324441322,0.787665525078774,-0.0453699886798859,-9.84507751464844
367.443117,0.0811876198842175,0.0133504594847454,-0.0022308712576744,1.52912567853928,0.147882218658924,-9.61696996688843
367.463117,0.0141490790305824,0.0046111509219012,0.0037296000594088,1.74942404031754,0.229657027125359,-9.95935306549072
367.483117,0.106727990967427,0.0122250797664452,-0.0016434420532566,0.975289219617844,-0.0998771488666534,-9.50140533447266
367.503119,0.0181200223360846,0.0169620020856814,0.0016751897550218,1.27756507396698,0.129260444641113,-9.77254981994629
367.523135,0.122240811638523,0.0052219430352189,0.0012288576897331,1.43777607381344,0.135898988693953,-9.49829044342041
367.545298,0.0221372570940975,0.0288893794980038,0.0028091021289654,1.63473696112633,0.200075700879097,-10.4500114440918
367.563116,0.139289882879476,-0.0070090496592478,0.0020146866937713,0.937448143959045,-0.0622572064399719,-9.35954933166504
367.583121,0.053574701009584,0.0312766872501634,0.0015474449977805,1.6358922958374,-0.0631167352199555,-10.6751817703247
367.603116,0.116998701016232,-0.007431089927206,0.00325357321975,1.23596665263176,0.371332478523254,-8.91921501159668
367.623122,0.0777981386468353,0.0204732266003243,0.0028506010805067,1.54553679823875,-0.0855557337403297,-10.7549928665161
367.643118,0.106555066348211,0.0116344436406525,0.0044781291569941,1.41297579407692,0.353945195674896,-9.52847566604614
367.663116,0.132859620764335,0.0044871656180053,0.0025834177861311,0.814441761374474,-0.33125883936882,-10.1623914718628
367.683118,0.0728575015554706,0.0276154623563201,0.0029998807509568,2.034756731987,0.587859717011452,-9.67379989624024
367.703118,0.115462612366574,-0.0030666486950443,0.004131526629547,0.743686774373055,-0.0648693226277828,-10.0622007369995
367.723157,0.102807817693431,0.0361006546970395,0.0041248369896392,1.54482275247574,0.203804589807987,-10.717972946167
367.743152,0.166517870566008,-0.0103813554303386,0.0033426100738613,1.61991364061832,0.19008332490921,-8.92571105957031
367.763147,0.051892267894433,0.0268130323742455,0.0030007867953825,1.19745077490807,0.087708130478859,-10.8828684806824
367.783121,0.159484738827825,-0.0023133957302222,0.0032066027573051,1.36985000371933,0.309328228235245,-9.03778371810913
367.803135,0.0724477529156528,0.010849747930064,0.0062366891694194,1.16518519818783,-0.21683836132288,-11.3974662780762
367.823786,0.171283602489564,0.0262862846568996,0.0022354889590999,1.90905427932739,0.65263164639473,-8.95996894836426
367.843118,0.0707463927139132,-0.0051876026960994,0.0044643491176545,0.803514644503593,-0.419842463731766,-10.6398163795471
367.863121,0.150021438650593,0.0361189303744005,0.0019655027079137,2.10189290642738,0.690756031870842,-9.50667781829834
367.883118,0.0763885413949361,-0.0141234980061661,0.0055969384867512,0.687269547581673,-0.237837263196707,-10.6384126663208
367.90312,0.177649078533392,0.0309772347774706,2.17804159833433e-05,2.10835390090942,0.55375908613205,-9.99111242294312
367.923126,0.0581948472614513,0.0068350058021543,0.0051882017705106,0.836124491691589,-0.329942771792412,-9.88471612930298
367.942992,0.148756647770237,0.0114395048575753,0.0008211905841003,1.34014101177454,0.327640303224325,-10.6086218833923
367.962992,0.110325176999012,0.0074303816446917,0.0034495845096227,1.83893232941628,0.103664270043373,-9.6604434967041
367.982992,0.12436747533881,-0.0038811083685607,0.003427056350104,0.988224121928215,0.182161581516266,-10.4169040679932
368.002992,0.112498597761158,0.0212373237651791,0.002195646676912,1.22680352926254,-0.198558366298676,-10.0273048400879
368.022997,0.111005930711921,-0.0114453019084944,0.0037819460572364,1.47599277794361,0.408155250549316,-10.0671368598938
368.042993,0.13129898510698,0.0317416432658686,0.0015344734165031,1.52212713956833,-0.0319450259208679,-10.1230097770691
368.062996,0.0790617423491141,-0.011935170761473,0.0046076439232907,1.19903336539865,0.381416592001915,-9.76586265563965
368.082995,0.164536112188497,0.0151816839187112,0.0030794063763932,1.56138699054718,-0.274417391419411,-10.4588401794434
368.103009,0.0419270390938546,0.0008796677079243,0.0056069241723877,1.38792107105255,0.550583609938622,-10.0566329956055
368.123789,0.183064662504468,-0.0055733739044217,0.003632678957277,1.19086433649063,-0.378900972008705,-9.89031629562378
368.142992,0.0170999070821307,0.0226200171709074,0.0053924235678427,1.56151361465454,0.518357163667679,-10.5374919891357
368.162991,0.197432357004747,-0.0125387414469037,0.005395922029542,1.17189306020737,-0.210068987682462,-9.46347827911377
368.182992,0.0162810720567067,0.0233445608290195,0.0058672034303584,1.78316781520844,0.318577018007636,-10.9379026412964
368.202991,0.175912702170995,-0.0094198519451999,0.0062959027923203,1.33598685264587,-0.0487837284803391,-8.92674427032471
368.223002,0.0254810589917734,0.0148004133936213,0.0060035808375482,1.02656074762344,0.0082104206085205,-11.374047088623
368.242993,0.17782093646778,0.0047057499583075,0.0078011659429991,2.09341903328896,0.406870474666357,-8.56375455856323
368.263002,0.0058293208575263,0.007992864783352,0.008411096375718,1.00766913890839,-0.197808919101954,-11.5508470535278
368.282992,0.158625446315183,0.0213490756901881,0.0085612007217723,1.66585405468941,0.256362619996071,-9.14981870651245
368.302992,0.0482652242454187,-0.0187965164114392,0.0094407811963722,1.09465492516756,-0.278982162475586,-11.1552648544312
368.323,0.132230911080065,0.0267892592220087,0.0085721678562846,2.1098787009716,0.573607522249222,-9.57591609954834
368.342993,0.0310458810121582,-0.0144771984805177,0.0118607143376044,0.502037560939789,-0.319786392152309,-10.4054859161377
368.363008,0.113905747272015,0.0331937691602403,0.0122515941992685,2.0019485771656,0.262519279122353,-10.2303987503052
368.383754,0.0455132469831939,-0.0222384954801264,0.012550224879599,0.95169860124588,0.0121798634529114,-9.85466938018799
368.402996,0.112565497790643,0.0140458989337287,0.012172220218669,1.55315781831741,0.18272861354053,-10.1085057258606
368.422998,0.027513833180977,-0.0013215096446062,0.0135392587935556,1.44195741415024,0.220623330771923,-9.87255363464356
368.442993,0.0739847841172375,-0.0156350322060701,0.0168806427480043,1.05246693491936,-0.0622262962162495,-10.7799854278564
368.462993,0.071702043843152,0.004685517745191,0.0127837759490724,1.78389725089073,0.333504873514175,-9.44224300384522
368.482992,0.0173785348179327,-0.0176097330732653,0.0162448384615007,1.11057194769382,-0.0197473168373108,-9.99195985794068
368.502994,0.0595648048385479,0.0065025126130034,0.0139939475239189,1.41338015794754,0.165919980406761,-10.0456510543823
368.523034,0.0191248244131869,-0.0116277424169182,0.0199456489235884,1.56635840535164,0.144946181774139,-10.1041883468628
368.542997,0.0670148820397854,0.0078715720537835,0.0148236653356222,1.59562694430351,-0.0449771732091904,-9.76776275634766
368.562999,-0.0049391436349544,-0.0033108438871682,0.019679829691128,1.11606142520905,0.0801750361919403,-9.87816324234009
368.583005,0.0862807411964539,-0.0048950704181721,0.0177803925851166,1.42065778970718,0.0126226216554642,-9.60564155578613
368.603007,-0.0336540962171157,0.0109523618980298,0.0212214136851325,1.80444954037666,0.177471825480461,-10.5161571502686
368.623044,0.085055324384957,-0.0144765773129651,0.0217505660594903,0.72816176712513,-0.128060561418533,-9.26172046661377
368.643793,-0.0082006888279944,0.0148506579834235,0.0210019344043072,1.85446748137474,-0.0203486628830433,-10.6966058731079
368.66301,0.0759087015335541,-0.0191007400853602,0.0225574612899581,1.22783728539944,0.188077440857887,-8.8416241645813
368.683009,0.001186157462929,0.0135279957522441,0.0234441157124965,1.5258313536644,-0.0550458550453186,-10.4491899490356
368.703011,0.0338827796197445,-0.0120803968472193,0.0274571601639185,1.30729609429836,0.178103089332581,-9.3111180305481
368.723024,0.0453347668913688,0.0057593859487288,0.0245317961944196,0.974935004115105,-0.369416105747223,-10.282186126709
368.743024,0.0131644491566977,0.0066690129772498,0.0256833051932535,1.96835958361626,0.527287750691176,-9.09561223983765
368.763022,0.0301211400704241,-0.0135512857478594,0.0275029712709224,0.865466086566448,-0.299250444769859,-9.68825416564942
368.783024,0.011296434748767,0.0202521098896358,0.0287047131712399,1.52855098769069,0.257462269067764,-10.3793429374695
368.803025,0.0924634434224398,-0.0221774632232855,0.0289940006535713,1.36190271377563,-0.0027896463871002,-8.78558177947998
368.823029,-0.0432766373362739,0.015775359125693,0.0297960273886555,1.49255177378654,0.0760012999176979,-10.6014197349548
368.843029,0.0725710487271161,-0.0141340569076585,0.0304844055545114,1.17331240177155,0.126732492446899,-8.9570878982544
368.863033,-0.0142222109811667,0.0093214158261488,0.0314131116473529,1.2025511443615,-0.210373616218567,-10.8141586303711
368.883025,0.0692685373386841,0.0139620474689899,0.0306232256131461,2.17983890771866,0.536151817440987,-8.53754854202271
368.903027,-0.0233033791247056,-0.0104588954101882,0.0336323283660748,0.566522318124771,-0.461725702881813,-10.6289313316345
368.92303,0.0657896138326829,0.0331086557121848,0.0306839991882633,2.08476678058505,0.49403880238533,-8.75777273178101
368.943027,-0.0330388342540541,-0.0222488309719855,0.0347948827371787,0.943626648187637,-0.298620919883251,-10.4589765548706
368.962629,0.0876540806331756,0.0293838196301794,0.0324710267459955,1.86591799259186,0.499293851852417,-9.54574975967407
368.983789,-0.0300069947328616,-0.0161253259664168,0.0356458463019666,0.732828634977341,-0.383664000034332,-9.7770679473877
369.003026,0.063470673889106,0.0208783585170585,0.031985450790495,1.5196875102818,0.293135462701321,-9.83880834579468
369.023029,0.003802177952253,-0.0021862041134098,0.0365504485371327,1.46557083129883,0.0079219877719879,-9.18328857421875
369.043031,0.0349172357008082,0.0028268075939246,0.0351214781487361,1.24421457052231,0.180829513072968,-10.0497548103333
369.063025,-0.0146358966110118,0.0084386109143408,0.0356081108465974,1.15931622982025,-0.158681246638298,-10.3548913002014
369.083027,0.0644008598414403,0.0052448876484183,0.0371292947891489,1.46101979613304,0.277576807141304,-9.5680251121521
369.103027,0.0204288019942182,0.0270625374363345,0.0363552897177597,1.71445360183716,-0.0226834267377853,-9.58514699935913
369.123031,-0.0093754698904914,-0.0202738152451607,0.0383388150139493,0.945972692966461,0.335091136395931,-9.87344150543213
369.143031,0.0858821836186186,0.0093576609765152,0.0378533209654508,1.47864446043968,-0.242781543731689,-9.94738445281982
369.16303,-0.0581943179433692,0.0104888241340218,0.0401401251643333,1.60417988300323,0.524514273554087,-9.65596294403076
369.183031,0.0825551660576271,0.0033140429947542,0.0364142632326368,1.12342648506165,-0.36363068073988,-9.71334466934204
369.203032,-0.0421608393168528,0.0168324885326027,0.0389209451212588,1.38656829595566,0.565616929531097,-10.3683150291443
369.223037,0.104536759456683,-0.0009923854727254,0.0399117717569668,1.45105477496982,-0.112036713957787,-9.04014310836792
369.242636,-0.0672807947787943,0.0268190057856168,0.0388215753570753,1.56488988399506,0.382030488550663,-11.0379281997681
369.266262,0.107492503348703,-0.0053174745331304,0.0391892397916375,1.1670598089695,-0.128815746307373,-8.34034194946289
369.283027,-0.0688355937337195,0.0197832140820358,0.0389408996554351,1.27985517978668,0.120246976613998,-11.3908857345581
369.30303,0.102788627308972,0.0126417997485189,0.0400936848411119,1.82512463331223,0.341406044363976,-8.23238878250122
369.323032,-0.0577591716081924,-3.57299174479131e-05,0.0409324579926802,1.07824745178223,-0.0421897739171982,-11.828232383728
369.342994,0.0853763363311228,0.0367556823912001,0.0415701911180627,1.70885552763939,0.337944485992193,-8.52057933807373
369.362995,-0.0270931235467129,-0.0181531828947962,0.0412250766753927,0.681007233262062,-0.20325979590416,-11.3355438232422
369.382995,0.0761989901277682,0.0434501131706759,0.0394124477348564,2.40361422300339,0.560676938295364,-9.1331449508667
369.402996,-0.0524989628526202,-0.0175780304473527,0.0429178032340467,0.407588046789169,-0.100958589091897,-10.7740459442139
369.423,0.0905715192716939,0.0430991993098324,0.0409136387937106,1.8868990778923,0.295356784760952,-10.1124031066895
369.442995,-0.0209275661606648,-0.0217417192747373,0.0414857019149905,1.27643418312073,0.143901544809341,-9.81018896102905
369.462995,0.0739279997800413,0.0270867881821449,0.040032461961111,1.33435190916061,0.153451392799616,-10.3426084518433
369.483053,-0.0215986254933851,-0.0105268313501953,0.0415204640988428,1.23722824007273,0.228922261297703,-9.90141296386719
369.503092,0.0544963222651169,0.0140130580135414,0.0419570397822218,1.37517377436161,0.0712116032838821,-10.7814695358276
369.522732,0.0260769517243074,0.0064085790118069,0.0394942870333616,1.54350535869598,0.469996023178101,-9.24165306091309
369.543824,0.0237766676095563,-0.003069149581872,0.0419008103886365,1.03596820831299,0.0122938692569733,-10.2483945846558
369.562997,0.0275558829001447,0.0185413521909995,0.0393147539867828,1.70296552404761,0.230110788345337,-9.84842004776001
369.582999,0.0248851831555177,-0.0026463018425159,0.0444633987773447,1.19643824100494,0.283371806144714,-10.4518056869507
369.602995,0.0641965127608683,0.0206086898922305,0.0388773701227541,1.9114618241787,0.0582266516983509,-9.53671321868896
369.622999,-0.0242886857966211,0.0024924812917442,0.0421893001062377,1.08874125480652,0.22189245223999,-10.1361021995544
369.642994,0.077722772368741,0.0089209533187038,0.0396589882842696,1.17403022646904,0.167698276042938,-9.47189455032349
369.662996,-0.0116147758993459,0.0104850062261376,0.0426499933773676,1.99861992001534,0.451488494873047,-10.6075998306274
369.683002,0.0771277033223728,-0.0006441431768266,0.0403426792864284,0.689448434114456,-0.0863014161586762,-9.25133190155029
369.702995,-0.0143363446840438,0.0211416130661101,0.0399732332562104,1.65402902364731,0.265123784542084,-10.6276173591614
369.723008,0.0803686109395723,-0.0073610826396054,0.0409585867997629,1.43176008984447,0.305980584025383,-8.99910907745361
369.742997,-0.0015261220943957,0.0278611788792747,0.039605557932278,1.5992467045784,0.180037462711334,-10.7953168869019
369.762996,0.0654964497937397,-0.0123544080818677,0.0409997500394925,1.05647123754025,0.231514176726341,-9.41261739730835
369.782996,0.0268299906153557,0.0209685390731412,0.0385183741003265,1.38600003123283,-0.132772296667099,-10.3750862121582
369.802995,0.029795203110676,0.0049609271986463,0.0395540284855636,1.6799624145031,0.718006709218025,-9.28798666000366
369.822676,0.0462088208922268,0.0024571302829525,0.0402512923775073,0.93274884223938,-0.127370434626937,-10.0306761741638
369.843797,0.0106256765308054,0.0201646038575658,0.0401687163894351,1.72514593601227,0.532562720775604,-10.3750152587891
369.862995,0.0959216933999244,-0.0113358874104726,0.0387983346003514,0.912695881724358,0.0037951178848743,-9.2516547203064
369.882994,-0.0341644076137635,0.0274577955349975,0.0377233383409142,1.77954905033112,0.40078027844429,-10.5250900268555
369.902995,0.0736763340065055,-0.0054109865263197,0.0401057242235013,1.22128720283508,0.140024781227112,-9.22335319519043
369.923014,0.0032584802200059,0.0282614514145546,0.0389188534152776,1.09331692457199,0.15916405916214,-11.4752395629883
369.942996,0.116741176879889,0.0043864346825461,0.0375719623649816,2.2400386929512,0.525553604960442,-8.61437845230103
369.962995,-0.0352135231543783,0.0047142130703048,0.0387345697625839,0.828087663650513,-0.279694581031799,-11.2305715560913
369.982996,0.0925991761078958,0.0246644533429689,0.0371751087368581,1.74963077902794,0.558049380779266,-8.97006368637085
370.002996,-0.0027733175871223,-0.0179700780756086,0.0401425828478436,1.05057890415192,-0.145123738050461,-11.0946271896362
370.023,0.11361236728029,0.039999514987927,0.0358415931473306,2.07505997419357,0.750183045864105,-9.26104412078857
370.042995,-0.0129376304403539,-0.0150951969896572,0.0401020123686139,0.529387205839157,-0.320536174625158,-10.2334254264832
370.062994,0.0853326448045207,0.0414704582170554,0.0351185844169667,1.92886548042297,0.484610459208488,-9.90964002609253
370.082997,0.0075422841270801,-0.0129350439782047,0.0379833925987525,1.05123909711838,0.0734716892242432,-10.0528435707092
370.102995,0.0901184031084235,0.0181390344884802,0.0351784915769762,1.48083162307739,0.457170969247818,-10.0847158432007
370.125448,-0.0113865244022811,0.0042774288909951,0.0359643954158439,1.3024217069149,-0.0906724870204926,-10.21622838974
370.142995,0.0822354462180901,-0.0034747284353108,0.0360455515247314,1.19616743326187,0.434507672488689,-10.0743246078491
370.162995,0.0343253617376937,0.0189710668609727,0.0338005913879418,1.77902742624283,0.156488505005837,-9.39043092727661
370.182994,0.0032445957995429,-0.0154050040697883,0.0354347804799778,1.11045629382134,0.521452669799328,-10.2299557685852
370.202996,0.0525980371834556,0.0110307606290009,0.0346651231080059,1.2822386443615,-0.10991171374917,-10.1276856422424
370.222999,0.0061357179077051,0.0031549621384063,0.03517726486575,1.49600311815739,0.578331711888313,-9.99771194458008
370.242994,0.0619961213959773,0.008314957381148,0.0320410433926488,1.43175884485245,-0.0258248507976532,-9.60523414611816
370.263002,-0.0442393788658691,0.0143689188442517,0.0342137411953034,1.12307413816452,0.640692383050919,-10.1879555702209
370.282996,0.102432287819424,0.0037432323709778,0.033061812008815,1.75784611999989,-0.218914104998112,-9.31421461105347
370.302996,-0.0559904673096345,0.0180931319832637,0.0325974698517644,1.54084525704384,0.628080341219902,-11.2601892471313
370.323,0.0952179313946733,-0.0126912939482693,0.031571336090243,0.923328822851181,-0.213091045618057,-8.50006265640259
370.343017,-0.0702363769873391,0.0173915786263609,0.0311171063705064,1.64150232076645,0.433321183919907,-11.7269876480103
370.362994,0.114589356840623,0.0035461953719698,0.0320262561013605,1.53277821540833,0.247890913486481,-8.23241977691651
370.382626,-0.0657907209383809,0.0070885965085993,0.0317200318607524,1.25982397198677,0.150408837199211,-11.7230131149292
370.403772,0.0892506142830408,0.0198075679217751,0.0315201101255418,1.71520763635635,0.287282109260559,-8.5676495552063
370.422998,-0.0383971584840698,-0.0059132944134105,0.0308034148626426,0.730609840154648,-0.119970327615738,-11.2371459960938
370.442995,0.0762776000178311,0.0308724028105018,0.0297489029289147,2.33587865829468,0.594446194171906,-8.91097984313965
370.462996,-0.0572282849832666,-0.0123702016929982,0.0316094564611765,0.765037840604782,0.0214858651161194,-11.101707649231
370.482996,0.0852571738937822,0.0406969657746049,0.0312143602827139,1.66614158153534,0.219104540348053,-9.30587491989136
370.502995,-0.0271573266816312,-0.0301542616286197,0.0313480334568484,1.16706497073174,0.0432515978813171,-10.268175983429
370.523002,0.0633016768704239,0.0372136361571843,0.029737741324454,1.83044999837875,0.417822343111038,-9.96702079772949
370.542997,-0.035216249994713,-0.0167099568412666,0.0314657461284178,0.671039244532585,0.0536540538072586,-9.76989831924439
370.562996,0.0488743204576896,0.0170744349514164,0.0308551649374664,1.69770950078964,0.199927943944931,-10.6135328292847
370.582995,-0.0007066514759626,-0.0040287227772636,0.0303098735695622,1.49874991774559,0.385772521793842,-9.2282036781311
370.602994,0.0327603774340192,0.0013281968423583,0.0309481956678376,0.875802904367447,-0.0041784286499023,-10.0632097244263
370.622998,0.0011273005085142,0.0163717992858053,0.0303546350359684,1.90364237427712,0.412246310710907,-9.60881605148316
370.642996,0.0117780469735127,-0.0078934708139923,0.0339713059384577,1.07264558970928,0.0686183750629425,-10.738339805603
370.662995,0.0432318479362658,0.0184542564041157,0.0279520541061588,1.83038768321276,0.181087657809258,-9.51366634368896
370.682624,-0.0243230228215845,-0.0014900209322776,0.0325116190039656,1.21092288345098,0.100105948746204,-9.9905517578125
370.70376,0.0366018591476766,0.0144616465660607,0.0302223902631344,1.20339705646038,0.233649569749832,-9.56395635604858
370.723007,-0.0125867950539936,-0.0009702506972537,0.0336319245124755,1.75570390820503,0.411767712235451,-10.4135507583618
370.742998,0.0573748132956542,0.009508782709326,0.0300903306095938,1.20453242957592,-0.0695507153868675,-9.34179849624634
370.762995,-0.0424220170736259,0.0135938769154386,0.0312614179858809,1.33701377958059,0.197841934859753,-10.410288143158
370.782994,0.0741206297799094,-0.0050230070247373,0.0303384250247903,1.35360677242279,0.279240360110998,-9.11632690429688
370.802995,-0.0395568346289205,0.0210886081097328,0.0324531175196144,1.86659094467759,0.260399276018143,-10.8091119766235
370.822998,0.0427090132904308,-0.0135541861375318,0.0332694727720856,0.666343510150909,0.0582536693662405,-9.31871919631958
370.842996,-0.0038476301132131,0.0236268308224298,0.0298429832998836,1.65755887031555,-0.0285766005516052,-10.5910767555237
370.862995,0.0168109202411071,-0.0035781141282085,0.0324637545405017,1.68713286519051,0.621877909451723,-9.05088863372803
370.882996,0.0072492528319269,0.009257226421306,0.0316106367742166,0.878045344352722,-0.122043496370316,-9.97405700683594
370.902994,-0.0176475339832185,0.00982010838315,0.0335838512571741,1.84209942817688,0.628890932351351,-10.0646942138672
370.923,0.0418704187482064,-0.0125839503243901,0.0324968961019969,0.856424361467362,-0.153140792250633,-9.46845979690552
370.942996,-0.062815850992041,0.0261731497818745,0.0317147282640114,1.687893268466,0.552374136447906,-9.89612531661987
370.96263,0.0108676177416595,-0.0185203309904882,0.0339626157475828,1.25432176589966,0.297317838668823,-9.1014651298523
370.98624,-0.0755613067147278,0.0253129970089857,0.0339652561831322,1.06390931606293,0.191010704636574,-11.1533721923828
371.002996,0.0302975051979936,-0.0094957983189831,0.032959330252007,1.92977334856987,0.50491196513176,-8.09173069000244
371.023019,-0.146150519418389,0.0009304042427799,0.0327576288149441,1.19339624643326,0.0950434923171997,-11.0020606994629
371.042995,-0.0310293555643322,0.0175965617881881,0.0317966310049344,1.49786280989647,0.678766167163849,-8.36156482696533
371.062995,-0.141755906700456,-0.0242893273225615,0.0350240708384439,0.937257695198059,0.081740465760231,-10.8960855484009
371.082994,-0.0469048059933476,0.0447971726511219,0.0325088209092737,2.36349546909332,0.739804781228304,-8.65427551269531
371.102996,-0.208067701875943,-0.0455394399428707,0.0361515448667052,0.150683146715164,-0.186816668510437,-10.349002456665
371.123008,-0.0395074241116129,0.0510780785317776,0.0304250660621053,2.04867756664753,0.633849872648716,-9.15084981918335
371.142995,-0.209861690581942,-0.0311975164391722,0.0358817900738172,1.18289531469345,0.138977807760239,-9.5368839263916
371.162996,-0.0805872821581107,0.0211652032295823,0.0330924684266488,1.30150411128998,0.421535684913397,-9.96079711914063
371.182996,-0.203136337897052,-0.0272669418044628,0.034215831480932,1.31391276717186,-0.0688053295016289,-9.61684198379517
371.203046,-0.10129268634691,0.0143543612950022,0.0339243732263227,1.25500519275665,0.369662755727768,-9.71671857833862
371.222658,-0.187432955141163,-0.0101272752644572,0.0344524366636599,1.54337211847305,0.164897882938385,-9.18393659591675
371.243757,-0.143733283763537,-0.0100928077815838,0.0355481795405931,1.11260302960873,0.485193336009979,-9.95391693115234
371.263,-0.179218764677741,0.0028757617045854,0.0345052676268393,1.47068369239569,-0.0689260594546795,-9.37386770248413
371.282996,-0.152377070770938,-0.0110438898953126,0.0354033954212419,1.14009693861008,0.756607973575592,-9.97910947799683
371.302995,-0.146864252299141,0.0038280094321841,0.0323161817954762,1.86272126436234,-0.061365818977356,-8.73562755584717
371.322998,-0.227244953753798,-0.0023948352734373,0.0340620891975087,0.82794114947319,0.715452828258276,-10.366424369812
371.342995,-0.0996165779140913,0.0058654507226038,0.0323947973669497,1.59236694872379,-0.155467319488525,-8.51799278259277
371.362996,-0.241324148120557,-0.0018643065773757,0.0318009943282307,1.72789665162563,0.905800104141235,-11.0554573059082
371.382996,-0.0997045839694704,-0.0133117740501884,0.029108590443146,0.636091947555542,-0.267038524150848,-7.79899349212647
371.402995,-0.262251653206059,0.0005270332082256,0.029406705890558,1.57041211128235,0.544392666220665,-11.2400363922119
371.423002,-0.0880107875206058,0.0107988314838746,0.0293086187048043,1.56834959685802,0.361977922916412,-7.35587196350098
371.442994,-0.263004065129781,-0.0036479581048467,0.0254002424063471,0.995791244506836,0.407659715414047,-11.4322338104248
371.462996,-0.0758813447132553,0.0120215761386132,0.0257296321249894,1.73943836688995,0.300725650787354,-7.4798210144043
371.482995,-0.255414628609358,-0.0252170192392352,0.0247101534257417,0.747986933588982,0.0573261022567749,-10.9759798049927
371.502995,-0.100912085813994,0.0254541239570259,0.0220854139565854,2.07053878307343,0.636884987354279,-8.13907432556152
371.523002,-0.257505247547363,-0.0447400223955779,0.022757093746682,0.555102584883571,0.21396953612566,-10.4837749481201
371.54263,-0.0982799664292694,0.0510475577576204,0.0210903236589911,1.75683495998383,0.318120360374451,-8.72173404693604
371.56375,-0.220124821629083,-0.0578725815581779,0.0194344431782311,0.812804973125458,0.047532331943512,-9.32435808181763
371.582995,-0.11281215119891,0.0483631155408714,0.0164959885286671,1.81870529055595,0.561108148097992,-9.44621477127075
371.602998,-0.228971917912731,-0.0375268079047556,0.0188628369370489,0.74691915512085,0.142313398420811,-9.11715707778931
371.622998,-0.102245239805413,0.025301935065935,0.0179579173714316,1.51324100494385,0.14115959405899,-10.025895690918
371.642996,-0.173215764993748,-0.0131427738653036,0.0148712852617074,1.80132081508636,0.531145763397217,-8.30464563369751
371.662995,-0.123368582283759,-0.0019370238978048,0.0153949886899045,0.500592938065529,-0.008112758398056,-9.86821975708008
371.682994,-0.130597056776981,0.0124764883377912,0.0150838656530565,1.94531884938478,0.44976407289505,-8.83999528884888
371.702995,-0.120724400554277,-0.008201055397337,0.0182815670899856,1.15970512628555,0.0252999305725098,-10.186914730072
371.723008,-0.0812415696118228,0.0275901998607776,0.0102433733501681,1.62044606208801,0.161138954013586,-8.62375888824463
371.742999,-0.143262089351922,-0.0081514203459502,0.0159173302366496,1.07960356473923,0.299907785654068,-9.7613302230835
371.762995,-0.0585297285368334,0.0276653005329291,0.0132316176328308,1.25095124840736,0.116083654761314,-9.0766619682312
371.782996,-0.120620581298738,-0.0053125744644913,0.0153348206584609,1.65760979652405,0.374484673887491,-10.124584197998
371.802995,-0.012971007188573,0.0105168570421752,0.0123073945279952,1.01804641485214,0.0416100569069386,-8.92840480804443
371.823003,-0.137203303424366,0.0200028152764623,0.0131474585433837,1.42905695438385,0.187158232927322,-9.98580856323242
371.845318,-0.011865029931134,-0.0069632584371809,0.0133041924445455,1.22831480503082,0.382212384790182,-8.87583389282227
371.862995,-0.0903615440438037,0.0249647774387291,0.0135856253768026,1.86360610723495,0.281708145141602,-10.3987934112549
371.882995,-0.0260644580066187,-0.0082976932315889,0.0147230254210944,0.776300345361233,0.196966999769211,-9.05687799453735
371.902995,-0.0483498550103036,0.0203835867251449,0.0118546513256543,1.38944165706635,-0.0550784707069397,-10.0254977226257
371.922999,-0.0508346323093528,0.0050689170829747,0.0134656603810415,1.77161988317966,0.849072277545929,-8.92600421905518
371.942995,-0.0392987854355527,0.0025403264916755,0.012755242366615,0.670421493053436,-0.196073251962662,-9.72845306396484
371.962995,-0.0471097495628452,0.0263771661570079,0.0137692590998029,1.73558133840561,0.635912644863129,-10.0125650405884
371.982996,0.0182052148758663,-0.0116035628071022,0.0136146759676193,1.15467813313007,0.0195623487234116,-9.04010791778564
372.002996,-0.0841701613326859,0.0260559302093951,0.0114373235510154,1.45396356135607,0.453763034939766,-9.96065769195557
372.022998,0.0114350285570632,-0.015815308910821,0.0144970539450976,1.2381553247571,0.316706073284149,-8.67644987106323
372.042994,-0.0816213250349201,0.0240576536041841,0.0127275750809025,1.21663677692413,0.170499885082245,-11.1759124755859
372.063017,0.0559940726380743,-0.0021668925551172,0.0110090945107175,1.74619740396738,0.612371295690537,-8.16652555465698
372.082995,-0.102592093588248,0.0028908806482141,0.0113936432096902,1.07879844903946,-0.131162691116333,-10.3396401405334
372.103003,0.0031204357922729,0.0223109448865397,0.0107344300914009,1.62783489711583,0.716726493835449,-8.84918127059937
372.123786,-0.0534644702822477,-0.0184887046900355,0.0133167045676371,0.793025062978268,-0.0858608424663544,-10.578787612915
372.142995,0.02999016308068,0.0371228487554381,0.0080585955667111,2.31564861536026,0.904833403229713,-8.77300434112549
372.163099,-0.0921073056229656,-0.0132364063517414,0.0114897465179002,0.38500480055809,-0.290036809444428,-9.81158447265625
372.182996,0.0193754895482909,0.0261393044356485,0.0078664074148754,1.74900696203113,0.639547097682953,-9.6643708229065
372.202995,-0.0534492778353701,-0.0153536474326446,0.0111511564650614,1.46894002854824,0.225239729881287,-9.53960790634155
372.223007,0.0209045583417731,0.009693996692996,0.007817463246683,1.10588805675507,0.423470963537693,-9.94160633087158
372.242998,-0.0435791471180147,0.0052167293941448,0.0093122618901384,1.16803883016109,0.0732464134693146,-9.54067115783692
372.263005,-0.0166527985370577,-0.0051780479839203,0.0081731571267772,1.50447425842285,0.400013741478324,-9.9835452079773
372.282998,-0.01442102163998,0.0136002329934825,0.0060282518967737,1.44178782701492,0.298273837566376,-9.46397390365601
372.302995,-0.0309291122832779,-0.0163986517625558,0.0093618439150268,1.10417788028717,0.658577945828438,-9.68194284439087
372.323008,0.0062280178666454,0.0175144791359314,0.0070448172456313,1.59926579296589,-0.126466238498688,-9.98895692825317
372.342994,-0.0602169680365309,-0.013770208487177,0.0082019768511093,1.21471194028854,0.758734062314034,-9.77705869674683
372.362996,0.0365715166277751,0.0038784792958324,0.0051265371497436,1.52727971673012,-0.009308260679245,-9.59116115570068
372.382996,-0.10419800819382,0.0036695061267265,0.0064885448060045,1.25810793042183,0.756083801388741,-10.0175099372864
372.403001,0.0555224959148748,-0.0084952957676712,0.0062452403663978,1.34165129363537,-0.125175106525421,-9.33275966644287
372.423796,-0.0928208103003946,0.0096614911239841,0.005633936142903,1.77012033462524,0.732062904536724,-11.0251237869263
372.442995,0.045282899045639,-0.0140945488522001,0.0048653607393465,1.04158262610435,0.0187845408916473,-8.36864175796509
372.462996,-0.0911974428750885,0.0089012192942743,0.0045660366902044,1.22402690947056,0.37395858168602,-11.3408735275269
372.482995,0.0664809487584565,-0.0012317045054795,0.005524437030332,1.93998237252235,0.448037761449814,-7.96489543914795
372.502996,-0.110815133558766,0.0008279377547628,0.0040989902631103,1.06351163685322,0.22725977897644,-11.5939756393433
372.523001,0.0597952310138605,0.0057234552881084,0.0049024555343028,1.48693494666368,0.423883485794067,-8.30221109390259
372.542996,-0.0823196103971342,-0.0202838230498305,0.0038080962361877,1.21244789361954,0.0820579923689365,-11.2954309463501
372.562995,0.0428607150005678,0.0236151709109195,0.0022147391827988,1.95420110672712,0.633157646656036,-8.81239204406738
372.582995,-0.0850603221324304,-0.0337427547173961,0.0033443422530817,0.566341859102249,0.0483019135892391,-10.7862770080566
372.602995,0.0352946977278501,0.034113772663712,0.0028498763992076,2.0381580889225,0.570647403597832,-9.39148759841919
372.622998,-0.0552942698657946,-0.0378526810965885,0.0022238284409806,0.716324123740196,0.0272657155990601,-9.73568229675293
372.642996,0.0112928630353396,0.0218571865537317,-0.000140688591708,1.89981980621815,0.614212942123413,-9.83949823379517
372.662996,-0.0735862145255862,-0.0277685952048954,0.0026673861369598,1.00500209927559,0.306775542348623,-9.75952987670899
372.682995,0.0216531187425989,-0.0014349602817766,0.0027039735154305,1.18464848995209,0.178675952553749,-10.3472890853882
372.705268,-0.0377723686771665,-0.0159104394254291,-0.0010279928255771,1.87657879590988,0.583817246556282,-9.06185007095337
372.723008,-0.0255139752498318,-0.0151647743838601,0.0010838678485775,0.983717149496079,0.104701718688011,-10.2253158569336
372.742999,-0.0257257190534786,-0.0033480386616342,-0.0005830848801874,1.49396030306816,0.443047916889191,-9.41659049987793
372.762994,-0.0195531283179049,-0.0143487604894723,0.0032562821831529,1.5287034869194,0.21217086315155,-10.2507741928101
372.782995,-0.001087374040842,0.0022016161823136,-0.0021238670851291,1.58817986249924,0.25333648622036,-9.34020013809204
372.802995,-0.044698751209048,-0.0222831317779566,0.0021255964828255,0.958266812562943,0.220972567796707,-9.71155586242676
372.822999,0.0214292282015759,-0.001441542477001,-0.001653927947144,1.61386035680771,0.319138824939728,-9.1328631401062
372.843059,-0.0761667699016826,-0.013305127095761,0.0021052369410134,1.55205117091537,0.507956326007843,-10.0882118225098
372.862995,0.0395185168289707,-0.0141266849815734,-0.001664574074563,0.893158026784658,0.0972010359168053,-8.93049793243408
372.882998,-0.076194969109457,0.0021173897444789,-0.0007162326459083,1.70570042133331,0.183414626121521,-10.023685836792
372.902996,0.0183534234399922,-0.0293674590320312,-0.0008630928288675,0.931962490081787,0.473192954808474,-8.76143388748169
372.923029,-0.049653612555039,0.006076676630171,-0.0006146162870284,1.86235627532005,0.380265387892723,-10.2305931091309
372.94365,0.0016944771432772,-0.0274640913664171,-9.14945487180928e-05,1.09776656627655,0.211446090042591,-8.84152164459229
372.962995,-0.0310720795348828,-0.0015898414216975,-0.0034057054816773,1.08014938831329,-0.0751423813402653,-9.8568362236023
372.982996,-0.0493502247586441,-0.0105730186139221,-0.0009995012840782,1.8002772808075,0.803767010569572,-8.5811182975769
373.002996,-0.0341485043987547,-0.009469585237644,-0.0016898202508455,0.929860401153565,0.0266497626900673,-9.6128324508667
373.023007,-0.0397879000812818,0.000212083978103,-0.0006860273047,1.40652776956558,0.509120941162109,-9.31042165756226
373.042996,0.0097984626824358,-0.0278674408589564,-0.001558687906333,1.30487229824066,0.0615642733871937,-8.76265907287598
373.062994,-0.0944766384648324,0.0029307990672214,-0.0022421476129423,1.44542914405465,0.517715774103999,-9.53168411254883
373.082996,0.0043108029168716,-0.0297151098990107,-0.0007098091861874,0.962981766462326,0.173762187361717,-8.24327840805054
373.102995,-0.0878911810455224,0.0027365960268094,-0.000221219094441,1.41891431808472,0.0394053816795349,-10.5369750022888
373.123007,0.02698881278998,-0.0126169541116796,-0.000851234970504,1.74716626107693,0.522009494900704,-7.88021945953369
373.142998,-0.0896048440754746,-0.012761182162974,-0.0007828923361922,0.880798292160034,-0.140229475498199,-10.1233380317688
373.162995,-0.0008790729352581,0.0066598096839853,-0.0015744915228122,1.85236388444901,0.706144392490387,-8.31472063064575
373.182996,-0.075040166076136,-0.025958877513811,0.0020575818464052,0.684695208072662,-0.246766585111618,-10.3652546882629
373.202995,0.0344158626128863,0.0239428968639933,-0.0006680767105484,2.26010956764221,0.666305911540985,-8.73863868713379
373.223008,-0.0916760385075618,-0.0265002993676852,0.0016177988736171,0.613224685192108,-0.180167476832867,-9.64262084960938
373.242994,0.0208729189807341,0.0137442103525367,-0.0015962101645524,1.64430925250053,0.611990678310394,-9.41713018417358
373.263004,-0.0511371186256845,-0.0252094772111267,0.0029790039936506,1.38258413076401,0.0926299929618835,-9.18073215484619
373.283633,-0.0019540231515974,0.0058324244463976,-0.0003220695910424,1.23591103553772,0.308675935864449,-9.83440065383911
373.302994,-0.0539451492613351,-0.0116077959314069,0.0015784133642608,0.852504817396402,0.0234958708286285,-9.41715259552002
373.323009,0.0026832276968829,-0.0025068983740361,0.0007699183617686,1.60051108598709,0.401556625962257,-9.38535089492798
373.342996,-0.0352319608703025,0.0027867919991245,0.0004156855658808,1.56392303705215,0.200841492414475,-9.14526500701904
373.362996,-0.0188842568016941,-0.0283082650537937,0.0016160895320226,0.967122783884406,0.429259961843491,-9.53098516464234
373.382995,0.0138490262221756,0.0039845889883596,0.0002441665890328,1.66605320572853,-0.0440956637263298,-9.40614395141602
373.402996,-0.0708579031789742,-0.0130698368636669,0.0027318298338039,1.27795060873032,0.651366426050663,-9.18053531646729
373.423007,0.0320923896138732,-0.0042674802676852,0.0001627775534096,1.40640164613724,-0.0476573586463928,-9.33687105178833
373.442996,-0.0838765117106854,-0.0044879885939948,0.0025212549433877,1.23113830089569,0.715877696871758,-9.65833578109741
373.462995,0.0520324747794629,-0.0113260440116204,0.001632017690956,1.24347592443228,-0.140803922712803,-8.81688680648804
373.482994,-0.0903091728014273,0.0119564259835752,0.0007678293633346,1.61074929237366,0.685967874526978,-10.1286071777344
373.502996,0.049412361250887,-0.0187699013703043,-0.0001103646251629,1.2087962269783,-0.0255301952362061,-8.12544765472412
373.523004,-0.101005323679125,0.0109763038355047,0.0006725111550439,1.16960323899984,0.327910542488098,-10.8615953445435
373.543003,0.0636736998937736,-0.0002790093963913,-0.000575468653449,1.75103170871735,0.363892936706543,-7.83042335510254
373.566249,-0.107540691889293,-0.0006303515527358,-0.0023398138527801,1.2901976287365,0.319743019342423,-11.3031028747559
373.582995,0.0493619215993229,-0.0020950632214014,-0.0012533463889961,1.14723277688026,0.341294306516647,-7.6759087562561
373.602994,-0.0754713401584422,-0.0192021080489765,-0.0036404379146599,1.05539476796985,0.0438358634710312,-11.1741327285767
373.623008,0.0470249158650775,0.0327115003774889,-0.0052721025888047,2.15030210018158,0.670199811458588,-8.12120046615601
