time,gyro_x,gyro_y,gyro_z,accel_x,accel_y,accel_z
1646.229035,0.0554117472322774,0.0248991804348338,0.0007657986733354,0.422100567817688,-0.471580478549004,-10.329546546936
1646.249037,-0.0201683730000095,0.0070505278621743,-0.0029980821036717,0.896031019091606,0.0183576822280884,-9.36505737304688
1646.269039,-0.0048219548959635,-0.0191718247104348,0.0001392923850673,0.268922680616379,0.163368067890406,-10.858661365509
1646.28904,0.0053571337377817,-0.0113792486459057,-0.0027264731883715,0.162336923182011,-0.210473310947418,-8.17379932403565
1646.309044,-0.0147224815443977,0.0037600900629577,-0.0025311600683982,0.116807520389557,0.486833882331848,-8.73811149597168
1646.329036,0.0115609776094427,0.0293639774222241,-0.0009673208500594,0.103053736686707,-0.4340527176857,-10.5362652778626
1646.3490390000002,0.0195100589649385,0.024092109465318,-0.0075887760564472,0.97859605550766,-0.159604688733816,-9.15206117630005
1646.3690410000002,-0.0548553227853279,-0.0136804019572883,-0.0032812873031227,0.491307687759399,0.223655295372009,-11.3177978515625
1646.388824,0.0109748304563708,-0.0075348618376578,-0.0019773663068691,0.0220739603042603,-0.20652984380722,-8.44697914123535
1646.409639,-0.05049892974465,0.0034381060629569,-0.003768504017438,0.152141319215298,0.425337076187134,-9.43781108856201
1646.429035,0.0326648797878455,0.0316020460080262,-0.0016662783793629,0.0288382142782211,-0.244246745109558,-9.9729208946228
1646.449039,-0.0117174594645908,0.018475512454757,-0.0064015004477224,1.16040640175343,-0.388465791940689,-9.47115268707275
1646.469,-0.0512036441610728,-0.0062951581724512,-0.0031437085550159,0.240786290168762,0.260896541923285,-11.5921349525452
1646.4890380000002,0.0044814887052466,-0.0096460749419758,-0.0018470701394883,0.250015473365784,-0.13381695151329,-8.7167218208313
1646.509002,-0.0768012669903106,0.0020255505716061,-0.0046363309778094,-0.0336921691894531,0.306282997131348,-9.20936980247498
1646.529003,0.0554887772167588,0.0336964295906915,-0.0034431826400017,0.263560405373573,0.0243358433246613,-10.0222469329834
1646.549002,-0.0256597512487734,-0.0028412497395224,-0.0068977830213893,0.687263560295105,-0.400904363393784,-9.73280735015869
1646.569001,-0.0394859647138193,0.016763364467616,-0.0046619691270333,0.571690818667412,0.288758833706379,-11.2468590736389
1646.589005,-0.0116835239259724,-0.018544630394473,-0.0012618452465347,0.29652387201786,-0.312640006840229,-9.39785385131836
1646.609002,-0.0374550294670092,0.0045395750027681,-0.006948110627844,-0.138736772537231,0.174983379244804,-8.92282066345215
1646.629009,-0.0001470466523275,0.0254737527569977,-0.0027236897780544,0.342241054773331,0.0518363833427429,-10.8068391799927
1646.649001,0.012879730830432,0.0228971686868702,-0.0074024563874318,0.639696097373962,-0.615962634980679,-9.08007326126099
1646.66876,-0.0545784367569453,-0.0136370622638703,-0.0067153079510514,0.664497184753418,0.416094399988651,-11.9030563354492
1646.689675,0.0170767042014771,-0.0030962069435655,-0.0007217247889134,0.14415535479784,-0.326503920555115,-8.94518918991089
1646.709002,-0.0604859248279632,-0.0016078180260567,-0.0049065522529708,0.190002280473709,0.346691112220287,-9.45071935653687
1646.729002,0.0245261782262953,0.0295555882007135,-0.0020623773489792,0.187900665402412,0.034557980298996,-10.4554566383362
1646.749001,-0.0073773568033776,0.0173802321393321,-0.0055333898236957,0.887495350837708,-0.6408292517066,-9.80719003677368
1646.769002,-0.0541498986124051,-0.0078612494042795,-0.0034168068691044,0.574561023712158,0.432443249225616,-11.9015077590942
1646.7891,0.002549739168591,-0.0109513913237288,0.0003486351417652,0.275177204608917,-0.291593378782272,-9.60509653091431
1646.809006,-0.0660008023376307,0.0013281091651737,-0.0045205911908462,0.109762132167816,0.35952106565237,-9.56904144287109
1646.829005,0.0281686769394714,0.0238097149543266,-0.0014633904743984,0.126092822849751,0.165801960229874,-10.4313946723938
1646.8490020000002,-0.0273079658496341,0.0137435167469997,-0.0054786231418042,0.894762873649597,-0.802669134736061,-9.95999364852905
1646.869002,-0.0280371213927537,-0.011190329672386,-0.0058773936097861,0.485174560546875,0.527975523471832,-11.2900869369507
1646.889007,-0.0181566101465243,-0.0122764899035382,0.000701248972374,0.345107400417328,-0.162945571541786,-9.87911596298218
1646.909005,-0.0284829619180114,0.0066617763989346,-0.0054489490013852,-0.024608650803566,0.173346066474915,-8.99023580551148
1646.928758,-0.0053733128082052,0.0119284019526258,-0.0025366699343711,0.378735526278615,0.124504479765892,-11.0533730506897
1646.952064,0.0091629540660058,0.01836831560065,-0.0046848703233077,0.536343383789063,-0.660315775871277,-9.66092910766602
1646.969002,-0.0541309481491795,-0.0200615208181421,-0.0048982313537811,0.851141571998596,0.6463652998209,-11.4124244689941
1646.989021,-0.0114284063404442,-0.0060221824932368,-0.0001872446514762,0.111660814285278,-0.289736831188202,-10.309970664978
1647.009004,-0.0197402784789425,-0.0004292326969788,-0.0069981561463471,0.135535544157028,0.347107207775116,-9.0013334274292
1647.029002,-0.0208657590422798,0.0138856666226513,-0.002135076227017,0.219492948055267,0.152407360076904,-11.1642017364502
1647.049001,0.0232160127606448,0.0121584401349434,-0.0056701736292833,0.673982131481171,-0.602462065219879,-9.9777663230896
1647.069002,-0.0635192377282895,-0.0245857852184479,-0.0073880873308134,0.709689718484879,0.417252335697413,-11.0950792312622
1647.0890040000002,0.0060612773444409,-0.0116619137340741,-0.0032316183260214,0.0304492950439453,-0.131411731243134,-9.56963796615601
1647.109001,-0.0353712246411824,-8.73362999300742e-05,-0.0108659787730808,0.224479800462723,0.266915485262871,-8.7275785446167
1647.128995,0.0026706170960086,0.0114354988121483,-0.0057134700907181,-0.0633656919002533,0.0949299499392509,-10.5694425582886
1647.149002,0.010018606451569,0.0067141891866255,-0.0101284704912,0.864499890804291,-0.743134623765945,-9.82796955108643
1647.1690230000002,-0.0423143195452149,-0.0296231340171968,-0.010224490412874,0.449698029458523,0.349245985597372,-9.82755517959595
1647.189003,-0.0059468858124216,-0.0116336141547134,-0.0047910123066643,0.107837778329849,-0.16396381855011,-9.99985837936401
1647.208761,-0.0003521515798026,-0.0058040542044933,-0.0117017530867847,0.170057394728065,0.230789190530777,-7.93732967376709
1647.229639,-0.0218537951585099,0.0069171126004059,-0.0077148034131634,0.0533576369285584,-0.0719132237136364,-10.7245449066162
1647.249002,0.018828706573394,0.0065887237569207,-0.0082938867457071,0.66574364900589,-0.617365926504135,-9.76717500686646
1647.269005,-0.0287437970147111,-0.0162105376555296,-0.0105594105704095,0.541339548490942,0.465501391887665,-9.29539041519165
1647.289003,-0.043552976011055,-0.0148206444822919,-0.003991352278545,0.159412568807602,-0.143222859501839,-10.0710450172424
1647.309002,0.0276727121697066,-0.0086675921175722,-0.0129840810611319,0.0761620461940765,0.174177014827728,-8.44974193572998
1647.3290040000002,-0.0473925792343752,0.0139448451047704,-0.0077759391782026,0.102687674760818,-0.245764628052712,-10.179972743988
1647.349003,-0.0037210511973199,0.0192915694331747,-0.0098838737535498,0.622374653816223,-0.226116716116667,-10.0745906829834
1647.369003,-0.0320829616690916,-0.0244129552894068,-0.0131624975921766,0.554130098223686,0.366564764082432,-9.54418458938599
1647.389011,-0.0429202878450757,-0.0050673314959826,-0.0069123648349963,-0.0377284288406372,-0.1357606112957,-9.66349077224731
1647.409001,0.0040667138961072,0.0012098161315994,-0.0141410555769072,0.340705895423889,0.04278923869133,-8.59938335418701
1647.429002,-0.0458709047967135,0.0134368087579565,-0.0104491569990683,-0.0350418865680695,-0.107705843448639,-10.4918292999268
1647.449002,-0.0058229028165987,0.0155591577820251,-0.0113547579788625,0.839975011348724,-0.42145366370678,-10.1297595024109
1647.4690010000002,-0.051716513784813,-0.0254439793842336,-0.0126136304865125,0.447117727994919,0.1994000852108,-9.42003355026245
1647.489006,-0.0252556194970201,-0.002255230233246,-0.0076656716992418,0.0319063901901245,-0.02312364988029,-9.85565767288208
1647.509002,-0.0091570162818131,0.0158214083784888,-0.0136036013597576,0.173475193977356,-0.253416919708252,-8.47120122909546
1647.528628,-0.0313661048623484,0.0086178134922065,-0.0104861381288253,0.363541150093079,-0.0415367230772972,-10.9814952850342
1647.549639,0.0180138123903339,0.0042443858072827,-0.0090356094505829,0.687857627868652,-0.492470520734787,-9.96408586502075
1647.569002,-0.0451894191287468,-0.0250845922617896,-0.011518532804764,0.330422877520323,0.167188212275505,-8.97613668441773
1647.589003,-0.0243779170245111,0.0054761848614575,-0.0072046138117541,-0.0550938505679369,0.117236226797104,-10.40657787323
1647.609002,0.0327998212185208,-0.0043973677285952,-0.0110883131994289,0.278732091188431,-0.202532804012299,-8.06011848449707
1647.629002,-0.0489311118374677,0.0203408653585742,-0.0098792398530764,0.250027441978455,-0.179676857590675,-10.8886434555054
1647.649004,0.027604328019671,0.0110214777959888,-0.0082649271314357,0.599368172883988,-0.32665244564414,-9.79261713027954
1647.669002,-0.0276644506886022,-0.0149960452496032,-0.0119846750220546,0.610492664575577,0.183349919319153,-8.76185760498047
1647.6890050000002,-0.0563223355732164,-0.0074674178131134,-0.0043231920832905,-0.0571325182914734,0.0449728399515152,-10.1286309242249
1647.7090050000002,0.0400301938354962,0.024876063633468,-0.0105776501471411,0.110606348514557,-0.520326679944992,-9.04013299942017
1647.729,-0.0556361004531714,0.0162662022222168,-0.0104649175278186,0.568475222587585,-0.0340798784047365,-10.8837406158447
1647.749002,0.0489937560170058,0.0005420719019303,-0.0065362419637642,0.62411812543869,-0.251740118861198,-10.2395860671997
1647.769002,-0.0711700233033723,-0.0279088914833693,-0.0090694152044792,0.286831092834473,-0.0422800712287426,-9.40949430465698
1647.789005,0.0171993890541724,0.0115547672433043,-0.0053890103568922,-0.060217297077179,0.257596535980701,-10.2109083175659
1647.811149,0.0106510560057033,0.0232772247512754,-0.0095667108446634,0.495762372016907,-0.610270756483078,-8.35006999969482
1647.829001,-0.0252365841677245,0.0078502265209262,-0.0080184036706401,0.333550298213959,0.0473954379558563,-11.5089288711548
1647.8490020000002,0.0303889374990177,-0.0001629684206927,-0.0044235331948315,0.842263543605805,-0.391173112392426,-10.2628630638123
1647.869002,-0.0511060068072868,-0.0225093215148084,-0.0070779828347585,0.137642204761505,-0.0513821817934513,-9.11135787963867
1647.889006,-0.0071198477582807,0.0063796208326835,-0.0027489120006816,-0.0249646939337254,0.343109673261642,-10.5888669013977
1647.909006,0.026301825445261,0.0272601312135755,-0.0066846621858623,0.326693549752235,-0.814936900138855,-8.3931131362915
1647.929002,-0.0325349970614443,-0.0006222848966679,-0.0059735559809932,0.696102964878082,0.205864059925079,-11.9544864654541
1647.9490010000002,0.0533180226932349,-0.0096098815161179,-0.0001098498952859,0.425649464130402,-0.361890061199665,-10.1494236946106
1647.9690050000002,-0.033598706251938,-0.0137719204855537,-0.0063368381838147,0.446111020445824,-0.0573862574994564,-8.81569595336914
1647.989039,-0.0577989795947822,-0.0072845952298307,-0.0001336965063856,-0.0369271278381348,0.278957271575928,-10.4261532783508
1648.009001,0.0569092562636494,0.0326458006643437,-0.0041261392606665,0.232561525702477,-0.726001189649105,-9.37910385131836
1648.029027,-0.0515551037868682,0.0008220044683534,-0.004917414373859,0.91459943652153,0.0972579181194306,-11.1767345428467
1648.049002,0.0317523661884997,-0.0104525625312373,0.0007535020106183,0.464870512485504,-0.232054232060909,-10.4665377616882
1648.068632,-0.0542204428524833,-0.0240518661406453,-0.0030760706301438,0.238511276245117,-0.0219481587409973,-9.12709732055664
1648.0896750000002,-0.0109207315917388,0.0064008115766942,0.0019770593109628,-0.146708798408508,0.30459475517273,-10.4153683662415
1648.109002,0.0329671791206708,0.0203330209876937,-0.0006210776413137,0.60976215004921,-0.923287582397461,-9.30686006546021
1648.128996,-0.0329761777647931,-0.0026887963077531,-0.0035926294367624,0.566593217849732,0.101459462195635,-11.0803248405457
1648.149005,0.0202917663719445,-0.0147540569303867,0.0042773590865812,0.683845627307892,-0.14720521569252,-10.419660282135
1648.169002,-0.0414174156213333,-0.0171817056638604,-0.0003411641460838,0.068328732252121,-0.0822015434503555,-8.81960306167603
1648.189037,-0.0090373908686946,-0.0017650793219066,0.0041473966604578,-0.0178921699523926,0.277805867791176,-10.454198551178
1648.209002,0.0325224184185043,0.0186672636114319,0.0015367856581228,0.419035369902849,-0.895675693079829,-9.21843938827515
1648.229005,-0.0189724663817696,-0.0039685122441254,-0.001388636704884,0.805810534954071,0.278407987952232,-10.7939902305603
1648.249006,-0.0043845272673193,-0.0160787393468739,0.0064661837801942,0.463260366767645,-0.35096589922905,-10.3341386795044
1648.269001,-0.0117286054451725,-0.0237672445167215,-0.000495689813167,0.132240545749664,0.181811454892159,-8.48540754318237
1648.289005,-0.028671683344152,-0.0065060451483707,0.0063817242713693,0.0039857983589172,0.218276082724333,-10.1458324432373
1648.309001,0.0230451019647397,0.0255404537003883,0.0036394441264706,0.20540885925293,-0.729065492749214,-9.69583082199097
1648.3290020000002,-0.0327509710895092,-0.009150697798728,-0.0007074498352806,1.09092235565186,0.293091797828674,-10.4766724586487
1648.349007,-0.0154512659020285,-0.0186029864998138,0.0075956616892987,0.207849901914597,-0.106699079275131,-10.3759135246277
1648.369001,-0.012133852883921,-0.0176188513820971,0.0019903737039657,0.279212367534637,-0.011901718378067,-8.68627738952637
1648.388701,-0.0467008643050903,3.3024145677274e-05,0.006545589629956,-0.132441771030426,0.08078418597579,-10.5811463356018
1648.409645,0.0668506914056498,0.0198574473921779,0.0046724509448045,0.619492518901825,-0.831583119928837,-10.2183471679688
1648.429003,-0.0300708111767749,-0.0193880246115571,0.0019007483578101,0.749352121353149,0.135771650075912,-10.3563954353333
1648.4490010000002,0.0032878091999392,-0.0173455660660082,0.0090340738718398,0.435467481613159,-0.0293011546134949,-10.4544567108154
1648.469004,0.0107897996981908,-0.0236275556757247,0.0036629248044272,0.144020581245422,-0.167523622512817,-8.68377981185913
1648.489004,0.0029572016472746,-0.0015617139417311,0.0080493039156765,-0.0857365727424622,0.0501919895410538,-10.1432445526123
1648.509002,0.0510045911434946,0.0221733825501637,0.0061599239124075,0.575364851951599,-0.696867582201958,-10.1307843208313
1648.529002,0.0376678364046037,-0.0197038506948997,0.0028285936873638,0.587829256057739,0.207455313205719,-9.72641553878784
1648.549004,-0.017737189482277,-0.0106374640373275,0.0114091869571196,0.616000652313232,-0.103784834221005,-10.1792531013489
1648.569002,0.0637893892730137,-0.0293594048336395,0.0058224360236232,-0.0530869007110596,-0.161546730995178,-8.6617733001709
1648.589005,0.0188336060798102,-0.0012677729107149,0.0087259112937445,0.102852559089661,-0.027469003200531,-9.79499349594116
1648.609003,0.0675505831866946,0.0224188088329344,0.0077549415799574,0.266333639621735,-0.487197110056877,-10.0572364807129
1648.629002,0.0528318248600055,-0.0184345982538883,0.0028101729601886,0.909833431243897,0.25138081908226,-9.43350143432617
1648.649002,0.0065288925857772,-0.0047239399410595,0.0107249789466015,0.26676137149334,-0.0081170320510864,-9.8621509552002
1648.671151,0.076384656730478,-0.0271649439144527,0.0047379016523784,0.102054262161255,-0.0349822640419006,-8.79239044189453
1648.689006,0.0394807425506294,0.0038915562458221,0.0059929046903844,-0.0812247157096863,-0.0302262254059315,-9.61970081329346
1648.709002,0.0734089826870023,0.0174450040071182,0.0063418165715858,0.365829086303711,-0.466997796297073,-9.9808708190918
1648.729003,0.0538163367262587,-0.0105499786003707,0.0013791928282953,0.844169926643372,0.0236164689064026,-9.61982984542847
1648.749002,0.0306673053324803,-0.0136865232036965,0.0078275874019062,0.327943544089794,0.269967937469482,-9.59858388900757
1648.769002,0.0840271586166511,-0.0181278612622799,0.004279262802973,-0.0316231369972229,-0.253463971614838,-8.55603246688843
1648.789009,0.0607503461967048,0.0039108742252921,0.0040064983531283,-0.167646712064743,0.0671263635158539,-9.49620428085327
1648.809002,0.0826348881281897,0.0151898049032674,0.0053118260237256,0.618493059277535,-0.282871383428574,-10.324277305603
1648.829007,0.0928242669652585,-0.0114873553542383,0.000436936393767,0.450912058353424,0.0007761508226394,-9.07856826782227
1648.849011,0.0009217980302546,-0.0026386634227676,0.0045100731096967,0.648860633373261,0.19755751490593,-9.58763151168823
1648.869011,0.0905262202018151,-0.0219709538925514,0.0014693746715726,-0.367084503173828,-0.11760625243187,-8.93652029037476
1648.889152,0.0452191821447729,0.0168984097023964,-0.0002931418607286,0.177245253324509,0.0556968480348587,-9.62360877990723
1648.90869,0.108870514798693,0.0100333203579711,0.0022629358682237,0.635448670387268,-0.359425535798073,-10.1973966598511
1648.92966,0.052502880273961,-0.0233050873354753,-0.0027255940677656,0.659875452518463,-0.0010625660419464,-8.9390082359314
1648.949031,0.0161409038910815,-0.0103914949431246,0.0019730776112676,-0.0334579735994339,0.336607557535172,-10.4115515708923
1648.969031,0.119267857156074,-0.0019877140936557,-0.0027756321996953,-0.0057345211505889,-0.385619515180588,-7.71580371856689
1648.9890400000002,0.012439475605188,0.0058100767363933,-0.0041642539797801,0.103012070059776,0.0294789642095566,-10.1738170623779
1649.009037,0.159884943067816,0.0014251221796561,-0.0010602718039577,0.703825056552887,-0.0334859549999237,-10.2050308227539
1649.02904,0.0673227661991735,-0.0103713136555683,-0.0058621374245841,0.49155524969101,-0.327212810516357,-8.86252841949463
1649.049045,-0.0337935734255698,-0.0073109157845193,-0.0020043352969218,0.263461971282959,0.268561804294586,-9.3253701210022
1649.069043,0.0972275807634368,-0.0264157249434549,-0.0029888933542264,-0.103607702255249,-0.237861663103104,-9.06749038696289
1649.089054,0.0295777092461098,0.0064167914907454,-0.0059302816348929,-0.0590867817401886,0.0659007854759693,-9.15004110336304
1649.109076,0.0754417162186117,0.0192111102439803,-0.0037245613399401,0.809806048870087,-0.0919426143169403,-10.0427805900574
1649.128995,0.0515093712135288,-0.0172552069005816,-0.0076918904028102,0.485534000396729,-0.199780970811844,-9.15860786437988
1649.149061,-0.0179988103890723,-0.0088992128094512,-0.0031412558649329,0.392903852462769,0.310156291723251,-9.47225427627564
1649.169697,0.0563753277168293,-0.01580505254444,-0.0049064592790545,-0.249172449111938,-0.419597141444683,-9.08777208328247
1649.1890950000002,0.0211424225783403,0.0100577063923701,-0.0104792860518048,0.295699065923691,-0.0409094125032425,-9.61785945892334
1649.20906,0.0394473617780779,0.0083106253056097,-0.004240386729536,0.568899142742157,0.0056125521659851,-10.326734828949
1649.229064,0.0412477750941353,-0.0152469467550583,-0.0088146915300819,0.602069079875946,-0.321387977898121,-9.01504354476929
1649.249063,-0.0448226653177681,-0.0097299537189122,-0.0051377394413892,0.286760199069977,0.215691937506199,-9.66063241958618
1649.269066,0.0608004482777926,-0.0123562765853504,-0.0048184234924398,-0.393717870116234,-0.503745990991593,-9.0002254486084
1649.289105,0.0012525209273894,0.0162988877321532,-0.0090036383780221,0.683442586660385,-0.0916420787572861,-9.45543365478516
1649.309075,0.0545708345561891,-0.0063525615170804,-0.0033721816099848,0.414964794740081,-0.181655126810074,-9.93592491149902
1649.329079,-0.000296919037042,-0.0212430061226229,-0.0089346079379466,0.588705545663834,-0.339553642272949,-9.04804649353027
1649.349077,-0.0218408950424234,-0.0135941048820366,-0.0024323535923974,0.0382916629314423,0.395206421613693,-9.45046863555908
1649.3690840000002,0.0547833685493522,-0.0084968527700665,-0.0018275649545818,-0.0396966516971588,-0.737260401248932,-8.71923513412476
1649.389082,0.0085485142503947,0.009277746729282,-0.0082380259336307,0.182209306955338,-0.0688446044921875,-9.20189332962036
1649.409084,0.017467960648929,0.0023941520838196,-0.0016787411452004,0.538609933853149,-0.0853352308273316,-9.86677961349487
1649.42909,0.0116119239496165,-0.0104808599800691,-0.0049856129570421,0.517930924892426,-0.381596860289574,-8.81834421157837
1649.4490950000002,-0.0409120359257614,-0.013771817746713,6.48578546030794e-05,0.290827476978302,0.194620935618877,-8.90015325546265
1649.469722,0.0275671098981585,-0.0122345287807156,0.0013122502728421,-0.145672507584095,-0.681476849317551,-9.43284587860108
1649.4891,0.0340418120065588,0.0031294459175789,-0.0041716161187478,0.336860781908035,-0.0503029763698578,-8.94027490615845
1649.509096,-0.0339877415489795,0.0125037344889472,0.0044976531985614,0.641418325901032,-0.257229405641556,-9.45768699645996
1649.529097,-0.0051374121684694,-0.011217579611149,-0.0009342165876163,0.485553681850433,-0.320053726434708,-8.68949375152588
1649.5491000000002,-0.0297913556121119,-0.0129045229673221,0.0043538274991394,0.288596102595329,0.299173623323441,-9.15141458511353
1649.569103,0.0297641120649357,0.0041012902504897,0.0062493141606113,-0.224839890003204,-0.808563452959061,-8.94153690338135
1649.589109,0.0120336768328914,0.0080198163888802,-0.0002683021568206,0.54927973151207,-0.113334095478058,-9.10305814743042
1649.609107,-0.0269216510013405,0.0148733139987217,0.0080568018092859,0.324480438232422,-0.161336404085159,-9.88204555511475
1649.62911,0.0046131939808046,-0.0202676736403648,0.0039231727924469,0.691872501373291,-0.317168837413192,-8.88138761520386
1649.649114,-0.023122307421953,-0.0010515661223618,0.00850627580372,0.122574949264526,0.0847422726452351,-8.76397247314453
1649.669114,0.0256283670185766,-0.0034372211240836,0.0108173017495467,-0.03497514128685,-0.610023912787437,-9.3405255317688
1649.689124,0.010862049249152,0.0193445049106355,0.0044253592815772,0.479612728953362,-0.186912024021149,-9.4088568687439
1649.709119,-0.0107362981473245,0.0128912213648905,0.0115048409604459,0.55669811964035,-0.0825945258140564,-9.85786790847778
1649.7291260000002,-0.0068671353623967,-0.014463321161818,0.0080267344235262,0.559731602668762,-0.436981004476547,-9.21038446426392
1649.752155,-0.0129616033888615,-0.0083109297049339,0.0130835904933246,0.0812049746513367,0.316364608705044,-9.11233263015747
1649.769121,0.007777353908609,0.0064027340831677,0.0148100299503213,0.137844595313072,-0.505723532661796,-10.0189064025879
1649.789121,0.0178502959502493,0.0117106867497738,0.0085091347368498,0.363431257009506,-0.0943076111376286,-9.43516788482666
1649.809121,-0.0472022261781445,0.0171919449860098,0.0160119302199576,0.747193622589111,0.0004812218248844,-10.2703994750977
1649.829123,0.0025251481299616,-0.0163639035455045,0.014273267089817,0.401599812507629,-0.260276654362679,-9.27677974700928
1649.84912,-0.0378883981125,-0.0089770869568489,0.0163991031979685,0.0987051129341126,0.28931490033865,-9.53224782943726
1649.8691210000002,0.0229793498169097,0.0197630744285661,0.0178709036099125,0.0836708784103394,-0.413862223178148,-9.70855350494385
1649.889122,0.0062801772397536,0.0116030898296746,0.0115798638682906,0.714248096942902,-0.0952300503849983,-9.47980613708496
1649.909122,-0.0536018387404889,-0.0033141130654843,0.0184147781760627,0.558819782733917,0.022285133600235,-11.2617097854614
1649.92912,0.0309223485640276,-0.0099847809902799,0.0144353461330345,0.429002007842064,-0.292722368240356,-8.89575719833374
1649.949121,-0.0578893866971103,-0.0109157473376154,0.0160072080208955,0.176800218224525,0.369224629551172,-9.45491533279419
1649.969143,0.0435427776867926,0.0091408268657482,0.017957031899926,-0.214422249794006,-0.350148701667786,-9.78687782287598
1649.9891240000002,0.0126029527488496,0.0115645632378873,0.0104369277628765,0.760046756267548,-0.129429638385773,-9.45711479187012
1650.009128,-0.0401241215777382,0.0066486029241471,0.017562849481659,0.491260037571192,0.0561937764286995,-10.9422925949097
1650.029758,0.0183450705828682,-0.0227746661127631,0.0146503152024284,0.671634256839752,-0.317716777324677,-9.54225416183472
1650.049122,-0.0529272786379962,-0.0156132860006116,0.0136921610567577,-0.338773596286774,0.187493206560612,-8.99534721374512
1650.069121,0.0436760889965026,0.0211123478836827,0.0160455620398375,0.330425035953522,0.0768953382968903,-10.057511138916
1650.089125,0.0082173972349942,0.0162454754896578,0.0106955389424372,0.661358261108399,-0.341963595151901,-8.88165979385376
1650.10912,-0.0239419085944658,-0.0149772019046388,0.0148551162040302,0.618196177482605,0.0429864645004272,-11.7404369354248
1650.128996,0.0380301065765817,-0.0058575439745701,0.0129539009348818,0.228886920213699,-0.434025527909398,-8.68339881896973
1650.1491210000002,-0.0429390124130509,-0.0179863527128317,0.0115280269152306,0.171625661849976,0.426708644628525,-9.39861116409302
1650.169123,0.0249113300425059,0.010196264632669,0.014626050489817,0.0156165838241577,-0.0244610577821732,-10.0535858154297
1650.189127,0.0255018511197351,0.0163642396956282,0.008346106424621,0.60402455329895,-0.349153627827764,-9.1616135597229
1650.209121,-0.0600489317976348,-0.0059668498156153,0.0117059621834573,0.547459197044373,0.17965153157711,-11.4296955108643
1650.228996,0.0429812863685415,-0.0126787496896993,0.0104255003157476,0.28719539642334,-0.397422276437283,-8.88156080245972
1650.248995,-0.086458411568914,-0.0241883168143585,0.0080967156417378,0.0408678948879242,0.236208266019821,-9.79249801635742
1650.268996,0.080041755840208,0.0312160476616449,0.0116433251056823,0.210050755739212,-0.0199790567159653,-9.77467927932739
1650.288996,0.028699152017221,-0.01050639768373,0.006571187136381,0.686944502592087,-0.596367311477661,-9.63255176544189
1650.309002,-0.0705229603549779,0.0189792260766874,0.0100628442813036,0.368487232923508,0.0654748812317848,-10.7479055404663
1650.329761,0.0256405571950708,-0.0287786595701496,0.0116696366056228,0.692849981784821,-0.233609101176262,-9.62725524902344
1650.3489940000002,-0.0467988492254542,-0.011474716464674,0.0089800529490587,-0.356807887554169,-0.142783414945006,-9.0606689453125
1650.368995,0.0448867239909871,0.0249034695742955,0.0113980406214497,0.354818266630173,0.182621119916439,-9.97995271682739
1650.388998,0.0052172814378692,0.0029566496035503,0.0087372586980843,0.706556582450867,-0.729806664586067,-9.3186806678772
1650.408996,-0.0317911302750839,-0.0133385334938414,0.0122775725673346,0.469924759864807,0.315777838230133,-11.5913774490356
1650.428995,0.0347417312477545,-0.0108407638445563,0.0136087749942324,0.359757796674967,-0.554532638192177,-8.75677909851074
1650.448995,-0.0536325500786247,-0.0114034970836431,0.0099221185828829,-0.158888721466064,0.0997268721461296,-9.29777879714966
1650.468998,0.0513603691203011,0.0237670764416596,0.0130054735839889,0.457568784058094,0.262909709662199,-10.2171486854553
1650.489,0.0094401190753187,0.0031373156180814,0.0116840277960699,0.67951797246933,-0.831704750657082,-9.28723831176758
1650.508995,-0.0428928171598405,-0.0140103659718463,0.0134818454176858,0.51498144865036,0.245025077462196,-11.7756404876709
1650.528994,0.057935769022599,-0.0047569032482989,0.0155628729510687,0.180771702528,-0.533352854847908,-8.49724254608154
1650.548995,-0.0556146091270342,-0.0120539701803526,0.0116236791431162,0.0647970139980316,0.211595304310322,-9.74360113143921
1650.568996,0.0725983564268864,0.0312375678054055,0.0165413955453461,0.295199549198151,0.0058558568358421,-10.0157397270203
1650.588997,0.0105160513471427,-0.0066576087292138,0.0127465029368487,0.84179722070694,-0.814719837903976,-9.81837196350098
1650.611148,-0.0245704198436369,-0.0130448093033275,0.0164041153856938,0.345205628871918,0.435568687319756,-11.2599248886108
1650.628995,0.0708479831994424,-0.0064708832536142,0.018889919274201,0.296526968479157,-0.409135093539953,-8.74434652328491
1650.648994,-0.0424537717791351,0.0001436795584516,0.0141160218617064,0.0511652588844299,0.0547142058610916,-9.5922155380249
1650.668996,0.0933150707653594,0.030050952753127,0.0195168402018712,0.384515559673309,0.105078715085983,-10.2254097938538
1650.688998,0.0073989359842434,-0.0051631178880109,0.0154424432632703,0.889117151498795,-0.773898184299469,-9.95273189544678
1650.708994,-0.0043975384076369,-0.0152959280891446,0.0171036556294613,0.24048122279346,0.581262403726578,-10.6173555374146
1650.7289950000002,0.0543677799965154,-0.0035077388509126,0.021604420532138,0.25392237752676,-0.402638077735901,-9.15945253372192
1650.748996,0.0101918961014131,0.0134771106721754,0.0143352444137928,-0.0494424343109131,0.0753509774804115,-8.86100244522095
1650.768996,0.0486519169075133,0.0162769580792746,0.0191085252748809,0.648012924194336,0.224459034204483,-10.538747882843
1650.788997,0.0505564365087055,0.0020702856431259,0.0159264657080757,0.498883929848671,-0.783166724443436,-9.70121536254883
1650.808996,-0.018903881340608,-0.0244624066418528,0.0170700152874656,0.458402904868126,0.606563311070204,-10.3761790275574
1650.829016,0.0620421842604858,0.0043631083495759,0.019814393426365,0.0949588239192963,-0.37202307805419,-9.32069368362427
1650.8489960000002,0.0181565220846609,0.0128507607262646,0.0119235091928846,0.218906903266907,0.0440855927765369,-8.69340953826904
1650.869003,0.0228846307607057,0.0179245178975703,0.0182645607344298,0.493416452407837,0.212370216846466,-10.8600336074829
1650.889831,0.0717081984678471,0.003652830417428,0.0133019850981872,0.663895916938782,-0.71129801273346,-9.75276222229004
1650.908997,-0.0276461377861658,-0.0052363212649481,0.0146890381579675,0.395016223192215,0.473580664396286,-10.2807356834412
1650.928995,0.0541394948844382,-0.0197328133422158,0.0190766073471812,-0.0404051780700684,-0.167093777656555,-9.62919359207153
1650.948996,0.0140419834949635,0.019422441671912,0.0107897000367809,0.202836799621582,-0.0227093458175659,-9.13367300033569
1650.9689950000002,0.0312982628801477,0.0184055411494231,0.0164078549374576,0.558388376235962,0.16845178604126,-10.572545337677
1650.988998,0.0535765479414611,-0.0014143836035553,0.0124727215626018,0.684304440021515,-0.534641063213348,-10.0551627159119
1651.008996,-0.0047778664695718,-0.0030452400748575,0.0145603639149337,0.213050240278244,0.501894867420197,-9.40805044174194
1651.029,0.030669859104326,-0.0196354917265326,0.0172441673280849,0.272843325138092,-0.0927788347005844,-10.120609664917
1651.048998,0.0465000357930846,0.0131672503288204,0.0089135525712965,0.0301856875419617,-0.0701811075210571,-8.99721260070801
1651.068994,0.0060325676382567,0.0177211721656064,0.0132714163871286,0.436952742934227,0.115886297821999,-10.4940026283264
1651.0889980000002,0.0376974412880365,0.0063280453724618,0.0105143165047611,0.675009661912918,-0.370188361406326,-9.92199153900146
1651.108999,-0.0078454025299252,-0.0253439642473213,0.0098574614085721,0.235980957746506,0.475976154208183,-9.41463689804077
1651.128996,0.0377692749419916,0.0090181796523976,0.0127896385729382,0.164333963394165,-0.0255510836839676,-9.70943422317505
1651.148995,0.0535155596563705,0.0026616982283593,0.006089614326421,0.298917904496193,-0.0439142018556595,-8.82866792678833
1651.169002,-0.0173574591520762,0.0170555622524976,0.0105446196098769,0.383717781305313,-0.0198204874992371,-10.766463470459
1651.189829,0.0492580308527006,0.0046664050066767,0.0066862120125178,0.672714549303055,-0.272819449007511,-9.5345645904541
1651.208996,-0.0168678986339822,-0.0114741379077005,0.0071443438108276,0.462416675686836,0.494014102220535,-9.17920370101929
1651.2289950000002,0.0209030426997506,-0.0098115152497052,0.0113113237136315,-0.317731583118439,-0.162580358982086,-9.60827684402466
1651.248995,0.0435876581077321,0.0226113194048184,0.0024477588646919,0.458654972910881,-0.0122302889823914,-8.77908802032471
1651.268995,-0.0141314647640987,0.0130324451336354,0.0074270571835879,0.441646361351013,0.190411296486855,-10.6856557846069
1651.289021,0.0440417236583766,-0.0048149566113936,0.0049367431502284,0.801104354858399,-0.290758491307497,-9.54578294754028
1651.308996,-0.0450381099093881,-0.0280848892722384,0.0036818542582701,-0.0193155527114868,0.261314872652292,-9.19482774734497
1651.328995,0.062032620197652,0.0223103869246794,0.0067075518787598,-0.0348990797996521,0.216941171884537,-9.80856914520264
1651.348995,0.0298011861094277,0.0034257733777483,0.0018117392745519,0.582000884413719,-0.278221175074577,-8.63558120727539
1651.3689940000002,-0.0022801010813446,0.0150587902741784,0.0036191004748536,0.387810480594635,0.185718390345573,-11.1250961303711
1651.389003,0.0392233299119677,-0.0058069261575223,0.0029271681724341,0.720315599441528,-0.321909138560295,-9.63368234634399
1651.408995,-0.0333909086613635,-0.0264421984227772,0.0007446478767426,-0.0683288097381592,0.322532004117966,-9.09450950622559
1651.428996,0.0384604695191703,0.020459600684041,0.0034516621748263,0.234987062215805,0.178797295689583,-10.1012453079224
1651.448996,0.0418097709926602,0.0167355114707964,-0.001307071789657,0.332056075334549,-0.473474311828613,-8.42099342346191
1651.471154,-0.0308866371111639,-0.0006773597211046,0.001201584485298,0.694241434335709,0.399392949044704,-12.0313555717468
1651.488999,0.0774193528511371,-0.0021373494866148,0.0004128335791631,0.347625958919525,-0.412235563993454,-8.88949203491211
1651.508995,-0.0721541963563406,-0.0359046946804174,-0.0014064610688939,0.115500104799867,0.257640945911407,-9.33170108795166
1651.528996,0.0747211338056373,0.0238721953198608,0.0016026621607852,0.0839280009269714,0.377330046147108,-9.80911016464233
1651.548994,0.0664679028194994,-0.0099093439312792,-0.0016284221644289,0.481581142544746,-0.512928640842438,-8.94439554214478
1651.568996,-0.05758817736657,0.0275414112211989,-0.0023499109103382,0.343732130527496,0.0744020521640778,-10.6862885475159
1651.58903,0.0340025893236174,-0.0155425098287843,-0.001218041468613,0.841052567958832,0.0496339179575443,-9.68751401901245
1651.608995,-0.042458914165852,-0.0247799909812024,-0.0029824220056889,-0.0485563278198242,0.156193375587463,-8.75586471557617
1651.628996,0.0376672861955016,0.0235761966713266,-0.0013529315192338,-0.0629854679107666,0.349597969651222,-9.60567512512207
1651.648996,0.0187273725798783,0.0085807437087724,-0.005397493117101,0.721459329128265,-0.559585583209991,-8.90003986358643
1651.668996,-0.0345327681690705,-0.0019142128569345,-0.0043376939206874,0.432152992486954,0.461301916837692,-11.0791197776794
1651.689027,0.0332656307182066,-0.0125458427366303,-0.002601197745627,0.615122929215431,-0.284637466073036,-9.31066265106201
1651.709789,-0.0704742910250205,-0.0191839701458211,-0.0068124093528947,-0.301193463802338,0.107372611761093,-8.75985136032105
1651.729007,0.0425720474429804,0.0225042300240609,-0.0042920027447092,0.244031012058258,0.507266277074814,-9.99690256118774
1651.749012,0.0026837986786424,0.0106839029401963,-0.0060920529683288,0.509677708148956,-0.795007422566414,-8.86040277481079
1651.769007,-0.0276822069903496,-0.0087214537833141,-0.0067778851372903,0.655148124694824,0.3563890196383,-11.3171764373779
1651.789009,0.0285687456541481,-0.009493121901167,-0.0045356335242045,0.317791134119034,-0.279775047302246,-8.91476545333862
1651.8090100000002,-0.0517491099900774,-0.0191611479196737,-0.0078168176372288,-0.0714720904827118,0.252330338954926,-9.10583333969116
1651.829018,0.036208029450314,0.0231761960152136,-0.0040699156372638,0.215975758433342,0.270723739266396,-9.73885326385498
1651.849019,0.0233402533729269,0.0032631692775066,-0.0062437929540102,0.535849237442017,-0.854086157679558,-9.32130088806152
1651.869022,-0.0496721031790989,-0.014359062543863,-0.006211050393243,0.617434239387512,0.535938243567944,-11.210152721405
1651.889057,0.0605194787651735,-0.0125151560179402,-0.003153835177362,0.228156018257141,-0.339021155238152,-8.9376558303833
1651.910005,-0.064042976902028,-0.0160386571138627,-0.0091859925408419,0.0902480781078339,0.134965844452381,-9.2271900177002
1651.929998,0.0590892445292474,0.0229896469000662,-0.0058250185132237,0.0726952590048313,0.369777884334326,-9.67067623138428
1651.95,0.0067638811704805,0.0002893769645474,-0.0086513506219106,0.782572972774506,-0.739448556303978,-9.83833379745483
1651.969998,-0.0301791753240228,-0.0147253383469986,-0.0077253659247187,0.352835488319397,0.39241709113121,-10.6001856803894
1651.990005,0.0355459609497764,-0.0157920582116287,-0.0049588431270605,0.490898811817169,-0.234077799320221,-9.39752826690674
1652.010001,-0.0329246416897664,-0.0065267360170257,-0.0100087374863694,-0.0531851530075073,0.102585723996162,-8.59903144836426
1652.030015,0.0327729431162415,0.0119512282031056,-0.006250314887815,0.266700601577759,0.218835586309433,-10.0818005561829
1652.0506340000002,0.0090821277156552,0.0056205550599052,-0.0099994023370352,0.536827516555786,-0.681419196724892,-10.0485371589661
1652.069999,-0.0289372035923827,-0.0160820487685147,-0.0085694784777507,0.628115725517273,0.544428503513336,-10.3827465057373
1652.090004,0.0090693398074268,-0.014740740650978,-0.0048144183310343,0.266741055250168,-0.434982198476791,-9.87109527587891
1652.110001,-0.0054680179456931,-0.0104807480089363,-0.0127524821479933,-0.0228235319256783,0.0365097522735596,-8.34739809036255
1652.129993,-0.0122447850287339,0.0107434393881679,-0.0070180394853475,0.32227783203125,0.298483490198851,-10.1249965667725
1652.149998,0.0278435104026653,0.0157549699636103,-0.0104002829607873,0.484867024421692,-0.816217166185379,-9.79003067016602
1652.170002,-0.0498512910799874,-0.0082424112132115,-0.012153016400042,0.770474642515183,0.406391060352325,-10.349200630188
1652.190002,0.0031291580890355,-0.0238999049794269,-0.0057188423970178,0.107412028312683,-0.289487645030022,-9.83187103271484
1652.210002,-0.0171385996776322,0.0050077619064495,-0.01338140056492,0.0667722582817078,-0.0002676419913768,-8.87686185836792
1652.230002,-0.0263918317714204,0.0106857560269347,-0.0077713578011861,0.27067985534668,-0.0328768044710159,-10.4882062911987
1652.249999,0.0261624983799168,0.0077837530706828,-0.0115699253058118,0.711518526077271,-0.790063384175301,-9.98135766983032
1652.270001,-0.0487277481143703,-0.0072145562210213,-0.0110036269224285,0.408451509475708,0.332287377119064,-9.46869678497314
1652.290003,-0.020280229683423,-0.0404322498010541,-0.0045433158417265,0.296930980682373,-0.167733800411224,-9.85103073120117
1652.310016,-0.0017663313627548,-0.0028350650359012,-0.0104736007944744,0.0196738004684448,-0.311790478229523,-8.78231315612793
1652.333021,-0.0209336036062674,0.0087388426871797,-0.0053735940269305,0.168056893348694,-0.156562919914722,-9.95441370010376
1652.350001,-0.0049100254294341,0.0127237878289627,-0.0069117098268024,0.736536836624146,-0.774064087867737,-10.0773780822754
1652.369998,-0.0226265974279423,-0.0220003845460608,-0.0065215376447424,0.40364516377449,0.34901746660471,-9.19524965286255
1652.390007,-0.0203623996503785,-0.0189058432026858,-0.0003632611046666,0.471429216861725,-0.173282945156097,-9.64087495803833
1652.409999,0.0137398186221877,0.0001641350036573,-0.0049974339602138,-0.190336346626282,-0.34541143476963,-8.90404376983643
1652.4299990000002,-0.0270441923984197,0.0098233996361133,-0.0016394954998915,0.46308048479259,-0.13403535336256,-10.4534711837769
1652.4499990000002,0.0051809658616845,-0.0005601553582347,-0.0022479485883253,0.554533213376999,-0.593202060461044,-9.74082479476929
1652.469998,-0.0340849082278626,-0.0223475267788435,-0.0019541923363098,0.62080283164978,0.323704397678375,-9.386643409729
1652.490007,-0.0201877565524263,-0.0156418161505501,0.0042987486503702,0.0170666933059692,-0.270029300451279,-9.68108673095703
1652.509998,0.0142976824781705,0.0006173051403278,-0.0011572582016235,0.103196275234222,-0.359218855202198,-8.46420097351074
1652.529999,-0.0390839831392307,0.0119092993933054,0.0026384991501081,0.435798788070679,-0.0633923046290875,-10.622739315033
1652.549084,0.0202824552502425,-0.0009608458322777,0.002987572455866,0.720578879117966,-0.609237539768219,-10.0118933677673
1652.570015,-0.0618430736649928,-0.0395965010536977,0.003586944334783,0.428365509212017,-0.0016412019729614,-9.65505208969116
1652.590666,0.0257051545370268,-0.0006969878700815,0.0073342589249957,-0.0975675225257874,-0.043658447265625,-9.61962146759033
1652.609998,0.0027537626454876,0.0037800535927006,0.0047380277974468,0.358760620653629,-0.484347635507584,-8.59299182891846
1652.629999,-0.0091807210203979,0.0069423191251774,0.0091354545594484,0.574896955490112,-0.0808983623981476,-11.247424697876
1652.649998,0.054416849865916,-0.0050604600666575,0.0093825472117674,0.841724419593811,-0.79123340845108,-10.3764582633972
1652.67,-0.0315352542804297,-0.0212247422815338,0.0081795046235239,0.166849897801876,0.0929048538208008,-9.40696573257446
1652.690002,0.0036944494128095,-0.0185804831428332,0.0126345411547379,0.456511390209198,0.291702002286911,-10.0073596954346
1652.710001,0.0360593644541117,-0.0061385373076865,0.0106980245595493,0.0764801442623138,-0.591939234733582,-9.45228137969971
1652.729998,-0.0226787846014943,0.0199720145744732,0.0114472327003583,0.532254266738892,-0.0566461354494095,-10.9697958946228
1652.75,0.0216998746208308,-0.004772538726836,0.0125820029025641,0.845426708459854,-0.426420703157783,-10.4779943466187
1652.770002,-0.0349220935435471,-0.0362670522040824,0.0105852923544964,0.321811932325363,-0.0106104165315628,-9.3977222442627
1652.790002,-0.0127286828375955,-0.000811064616448,0.0152254307798848,-0.0178217172622681,0.378557956218719,-10.3768527984619
1652.8100040000002,0.0413059463464988,0.008547801943548,0.0129910206673836,0.2677574634552,-0.762158834934235,-8.58698053359985
1652.830001,-0.0476560120376825,-0.0010247853734194,0.0136967670236292,0.680461370944977,0.0159578651189804,-11.5383575439453
1652.850018,0.0750533758290971,-0.0082613343346489,0.0160671760193428,0.609478437900543,-0.580184233188629,-9.72295236587524
1652.870628,-0.0908247539430783,-0.0487034725123887,0.0150182465449233,0.342269259691238,-0.0673623085021973,-9.61044120788574
1652.890002,0.0487586623262076,0.0030658934817118,0.0188291291283031,-0.112071534991264,0.341054213047028,-9.75409879684448
1652.910002,0.0622047352158664,-0.0196484956319289,0.0174590991132221,0.433487892150879,-0.697699105739594,-8.74822406768799
1652.9299990000002,-0.0386363689486194,0.016219137298924,0.0165633237778721,0.200997459888458,-0.184347566962242,-10.3425839424133
1652.949998,0.0180377474627711,-0.005510195731474,0.0197813460815947,1.15156412124634,-0.223247952014208,-10.422926902771
1652.969998,-0.0175172550376134,-0.0430248353272479,0.0178001063695211,0.0662562489509583,-0.260227540135384,-8.7215274810791
1652.990004,0.0072327376816575,-0.0064594100444988,0.0219519663817945,-0.134681713581085,0.415814837813377,-9.76921644210816
1653.009998,0.0435711862782181,0.0076409833664569,0.0211643183498904,0.318942876160145,-0.909694373607636,-8.50675849914551
1653.030003,-0.0058887772922995,-0.004068902896244,0.0195659275889543,0.64626237154007,0.220515954494476,-10.3630010604858
1653.049998,0.0530639010116296,-0.0095345890963606,0.0242429523355614,0.740076303482056,-0.408910443633795,-10.129149723053
1653.069999,-0.0391539975285944,-0.0313978487746572,0.0194005059825347,0.0911873877048492,-0.105206118524075,-8.58934831619263
1653.090002,0.0033002771737364,-0.0083823514899142,0.0223073324563367,-0.0005892813205718,0.491185522079468,-9.65814590454102
1653.110002,0.0416936031913075,0.0090180584489727,0.0224519643612305,0.189517706632614,-0.816729465126991,-8.44122667312622
1653.13001,-0.0311973714448406,0.0026934871406946,0.0206256915132775,0.830059432983399,0.303679823875427,-10.7301491737366
1653.150628,0.0472806940329439,-0.0104187306783613,0.0238588174918378,0.438650488853455,-0.51569195240736,-9.56504926681519
1653.169999,-0.0665936331449707,-0.0346230517894913,0.0191934183315524,0.229658210277557,-0.0651074033230543,-8.8681583404541
1653.190021,0.0087902852852486,0.0008227112121523,0.0240038676905828,-0.0689985036849976,0.51025882512331,-9.3033766746521
1653.21,0.0356933031242241,0.0074412899529324,0.0235389834322763,0.357669997215271,-0.821903973817825,-9.13661756515503
1653.229997,-0.0333404501605362,0.0097314637017172,0.0211122929633808,0.451895332336426,0.0853221669793129,-10.1769116401672
1653.250002,0.0078929481242224,-0.0118437934399322,0.0258338684907531,0.978250706195831,-0.254246479272842,-9.672913646698
1653.269998,-0.0497551204233899,-0.0313044897061017,0.0224151994801622,-0.111477482318878,-0.162834645435214,-8.75925045013428
1653.290023,-0.0059236877846394,0.0064251223324035,0.0255366739052998,0.0210697054862976,0.474409943073988,-9.14282112121582
1653.309999,0.0144639473006048,0.0085796970272427,0.0245215000581648,0.333108776807785,-0.822057415917516,-9.33966836929321
1653.3299980000002,-0.0045121449455364,0.0022269102954975,0.0220716841178343,0.574847108125687,0.278845155239105,-10.0093892097473
1653.349999,-0.026243716274144,-0.0071385498373392,0.0289873605050003,0.930566382408142,-0.232909691333771,-10.0302254676819
1653.369998,-0.0203471537331424,-0.0244953901891172,0.0230632865028067,-0.254040157794952,-0.143707638978958,-8.7716742515564
1653.390005,-0.0229008452104858,-0.0007296618988341,0.0257273479612261,0.285959601402283,0.378024314343929,-9.62399635314941
1653.412188,0.0178991249515155,0.0135772303825505,0.0266836597911658,0.0761567324399948,-0.78163934648037,-9.65605506896973
1653.429998,-0.0248326371801764,0.0056711792685399,0.0225380770273651,1.01411567926407,0.257589882612228,-9.93175134658813
1653.4499970000002,-0.0086607280267356,-0.0122456545212723,0.0298606169778534,0.417724196612835,-0.173671543598175,-10.4316952705383
1653.469999,-0.0085159737347898,-0.0207843969822601,0.0241650975996496,0.0390272259712219,-0.134775711596012,-8.50012283325195
1653.490006,-0.0256981329645918,0.0030289738413875,0.0284129429125016,0.148549827933311,0.392896167933941,-9.6072603225708
1653.510002,0.0521119986664468,0.0188359226749587,0.0279061156408686,0.200893679261208,-0.758191335201264,-9.85356760025024
1653.529999,-0.0064735258196926,0.0038297219040116,0.0245119555251797,0.773409277200699,0.33863377571106,-9.92093896865845
1653.549998,0.0003986823321417,-0.0201663740904005,0.0310501793543214,0.659146404266357,0.0389323979616165,-10.1176518440247
1653.5700020000002,0.0085159788243867,-0.0238700250210337,0.0260409795775538,0.0081407189369201,-0.0870078325271606,-8.94406604766846
1653.590002,0.0078398269356545,0.0002826714797552,0.026767336789256,-0.021240234375,0.629728267341852,-9.15434093475342
1653.610001,0.0371267675083595,0.0163245903150826,0.0264429694375328,0.31119424700737,-0.459784352779388,-10.1949178695679
1653.6300270000002,0.021114323475836,-0.0100875044437613,0.0221200052246705,0.627180951833725,0.315562564134598,-9.47703876495361
1653.650002,-0.0227773024056173,-0.0062621825554889,0.0249537895907408,0.853994654119015,0.245806628465652,-9.98797149658203
1653.670019,0.0157986249753135,-0.0258233810803434,0.0207629198300586,-0.22978367805481,-0.0346616268157959,-8.81651983261108
1653.690669,-0.0166005963166449,0.0088552178600172,0.0189827691463367,0.223387157917023,0.642214524745941,-9.5030179977417
1653.7099990000002,0.0284261067407274,0.0176185254111673,0.0188867859762871,0.18629721403122,-0.474300628900528,-10.0125274658203
1653.729997,-0.0160820378791445,-0.0120121080679449,0.0124503529023961,0.866213405132294,0.551832550764084,-9.43277311325073
1653.749999,-0.0529282961579108,-0.0035061665205451,0.0171932325356738,0.494471573829651,0.204777818918228,-10.2660858154297
1653.769998,-0.0140611634635025,-0.0211608453509712,0.0133837105317562,-0.161862075328827,-0.000660890340805,-8.15333089828491
1653.790002,-0.0658793989981007,0.0090952366235791,0.0121027529609767,0.0866113543510437,0.427189967036247,-9.79022274017334
1653.8099980000002,0.0350102794510786,0.0214975266865933,0.0116411982459734,0.442220139503479,-0.435600319504738,-9.81526699066162
1653.830005,-0.0719924569549471,-0.0182390998481739,0.0081121149274679,0.991375194489956,0.196992485225201,-9.7038140296936
1653.850002,-0.021773961397926,-0.0150271834628873,0.0111888404326476,0.044749903678894,0.232638889551163,-10.730667591095
1653.869998,-0.0047857392475049,-0.0142378644452889,0.0079113466029051,0.229102689027786,-0.024513640999794,-7.99348363876343
1653.890039,-0.0474670142345915,0.0052045389809252,0.0072661352321245,-0.143007254600525,0.330310481786728,-9.10202589035034
1653.910002,-0.0158911221265447,0.0260916624940974,0.0059972904730067,0.423175919055939,-0.203144554048777,-10.292163848877
1653.93,-0.0131886595112301,-0.0059164594917146,0.0024526316525735,0.559664678573608,0.109195899963379,-9.29099636077881
1653.950002,-0.0752812814702953,-0.0114759512245652,0.0055713213173193,0.60084183216095,0.395758312940598,-9.3805609703064
1653.970002,-0.0249689883108425,-0.0165873808822733,0.0044417323987792,-0.193705630302429,-0.106145387887955,-8.45520620346069
1653.990012,-0.0605066602897728,0.0169727253929914,0.000350080794432,0.106615877151489,0.476267367601395,-8.69193553924561
1654.010637,-0.0107146462362663,0.0136584849692207,0.0020950828844082,0.422456204891205,-0.311619359254837,-10.1204504966736
1654.029999,-0.0578064087862306,-0.0027733386556864,-0.0031167611328701,0.763065075874329,-0.0609078675508499,-8.35050029754639
1654.049998,-0.0922621685646184,-0.018653799526577,7.5290259637667e-05,0.233325111865997,0.709169727563858,-10.2791562080383
1654.069999,-0.0091173321026279,0.00590728709112,-0.0002069573706162,-0.204155826568604,-0.335898604989052,-7.20637474060059
1654.090002,-0.0923310999350976,0.012132442473754,-0.0046094504962545,0.30810821056366,0.139519470930099,-9.66213502883911
1654.109999,0.0163593783020078,0.0252871525091555,-0.0017787971801312,0.253894972801209,-0.312650322914124,-9.39020652770996
1654.129995,-0.0924683815151026,-0.0130653007307999,-0.0066352229064138,0.830045175552368,-0.202570673823357,-8.62976655960083
1654.149999,-0.0622764331965541,-0.0051157648106771,-0.0032429312054355,-0.126999127864838,0.642783278226852,-9.56344499588013
1654.169998,0.007229382572007,-0.004800246729324,-0.0014036263409402,0.163496735692024,-0.355137453973293,-7.59942789077759
1654.1900030000002,-0.0739771017257389,0.0182359871749639,-0.0055793384459868,0.0496351361274719,0.0414424538612366,-8.82684087753296
1654.210002,-0.0746262601677215,0.0346269388212038,-0.0031642431367962,0.446500504016876,0.0376141011714935,-9.89441041946411
1654.230002,-0.0591130872491727,-0.0014022890641386,-0.0052878694425629,0.827710247039795,-0.178968027234077,-8.90520248413086
1654.250002,-0.0890232532287157,-0.0094773957567866,-0.0027854573706887,-0.123788571357727,0.454532986879349,-9.59556093215942
1654.272205,-0.0395743287572439,0.015938112126236,-0.0023890110730694,0.101351687312126,-0.318720995634794,-8.53632860183716
1654.290039,-0.0657348716074884,0.0277713704555825,-0.0067636747458975,0.241758577525616,0.173607980832458,-9.14828462600708
1654.3100020000002,-0.0271759336562445,0.0197731807110186,-0.003299521753269,0.731571640074253,-0.204590111970902,-10.6081949234009
1654.329999,-0.078851034308036,-0.0057084777287483,-0.0065719413436305,0.387570190429688,-0.291057738661766,-8.80404825210571
1654.349998,-0.0742500661604949,-0.0057753233113823,-0.0046807605107638,0.177289021015167,0.644245567917824,-10.1001541137695
1654.370004,-0.0174433270441066,0.0196201661215955,-0.0030733153716599,-0.111853361129761,-0.595228937268257,-8.32392320632935
1654.390029,-0.0717953811329671,0.0241533616992733,-0.0070499391851883,0.627373149991035,0.389223577082157,-10.3477833747864
1654.4100070000002,-0.0025566052863891,0.016405287176618,-0.001436150270969,0.581627553701401,-0.344905132055283,-10.2600557327271
1654.4300090000002,-0.0814283309513264,-0.0155997495665443,-0.0064503015449774,0.405980652570724,-0.299454844743013,-9.09829387664795
1654.450011,-0.054499974435603,0.0017607084233962,-0.0037969201766799,-0.127561163902283,0.817009003460407,-9.61794662475586
1654.470009,0.002452005887369,0.0197106264871474,-0.0025068293463776,0.043355792760849,-0.591415373980999,-8.79074201583862
1654.490173,-0.0551529502232469,0.0186264609045462,-0.007142752542425,0.721042466163635,0.228186792135239,-10.2506450653076
1654.509789,0.0085615103586468,0.006491967678312,-0.0029809158474794,0.559115290641785,-0.280735465884209,-10.6000574111938
1654.530664,-0.0765766117077561,-0.0182053281235595,-0.0074952786810538,0.35879173874855,-0.116179347038269,-8.83445539474487
1654.550022,-0.0316474951618334,0.0009412989393078,-0.005187461015924,-0.255887043476105,0.780087412893772,-9.39301042556763
1654.570025,0.0066987049756441,0.01909670604715,-0.0056590595178639,0.314001785218716,-0.707918604463339,-9.40314168930054
1654.5900310000002,-0.0202788753697874,0.0063254699180455,-0.0088062213755028,0.35851799249649,0.183190849423409,-9.97036752700806
1654.610034,-0.0088291217210451,0.0106286199749171,-0.0044829765616206,1.01323148012161,-0.143883318454027,-10.4132608413696
1654.630032,-0.0375135697743325,-0.0224083484092248,-0.0082566081408449,-0.0020771265029907,-0.287484487891197,-9.14755544662476
1654.650034,-0.0187293943334923,0.0016204259933606,-0.0059421301389027,-0.0075245708227157,0.642170670628548,-9.57730493545532
1654.670033,0.019196362249115,0.0160092627977082,-0.0055818873205749,0.160318493843079,-0.800664794445038,-9.78487424850464
1654.690038,-0.0064170088046986,0.0080273217689317,-0.0101401221173199,0.843710339069366,0.243739902973175,-9.80658559799194
1654.7100360000002,-0.0097397384394462,-0.0085165177298492,-0.0035811215362736,0.637617242336273,-0.133165103197098,-11.0162824630737
1654.730033,0.000171652930157,-0.0184696539735864,-0.0091697996922581,0.0494955569505692,-0.235834324359894,-8.61073837280273
1654.750036,-0.0394746284059845,0.0040170942244763,-0.0069646361052606,0.203648865222931,0.434449324011803,-9.87769155502319
1654.770037,0.0348990272534719,0.0196785189423709,-0.0061265903369905,0.0048540592193603,-0.670191989839077,-10.2234422683716
1654.7898690000002,-0.0159693755080961,0.0017395153417219,-0.0113055265443496,0.939140799641609,0.320633700489998,-10.2551084518433
1654.810639,-0.01567425156006,-0.0073300692398091,-0.0046992517636256,0.564824450016022,-0.178351417183876,-10.4547914505005
1654.830034,-0.0037853685522627,-0.0208126468492786,-0.0103293230604285,0.123713207244873,-0.246574509888887,-9.1343056678772
1654.8500350000002,-0.0229758675856983,0.0088313768859421,-0.0078148167450442,0.0942941188812256,0.371615210175514,-9.73653440475464
1654.870035,0.0222330721594946,0.0192128364458833,-0.00785726022554,0.233510130643845,-0.72401579618454,-10.8248380661011
1654.890036,-0.0056904274140054,0.0033844707067349,-0.0111912404735135,0.802316389232874,0.077428126335144,-10.2607262611389
1654.910038,-0.0145818519565053,-0.0093290190921694,-0.0066310926984938,0.79730943441391,-0.0132306098937988,-10.4997928619385
1654.930034,-0.000622319458582,-0.0184930964203845,-0.0096042386326411,-0.0932052135467529,-0.239012236520648,-9.39590711593628
1654.950036,-0.0073053584181074,0.0143358814419498,-0.0083149294475462,0.157698507606983,0.235783445835114,-10.117618560791
1654.9700340000002,0.0232737983872677,0.0137064895741447,-0.008469298639114,0.500723671913147,-0.771942454576492,-11.0102758407593
1654.990039,0.0082738482331813,-0.0034698452629499,-0.0112305509815928,0.555997741222382,0.232918803393841,-10.1257990837097
1655.010038,-0.0418306594086943,-0.0138470860204755,-0.0052946766453173,0.891767862439156,-0.0155175745487213,-10.9032033920288
1655.030038,0.0150710602271457,-0.0136588163848357,-0.0082237791457016,-0.314256238937378,-0.439515906572342,-9.24961853027344
1655.050038,-0.0301580487621968,0.0149470047341571,-0.0079694084881156,0.390199291706085,0.222838941216469,-10.7240613937378
1655.069762,0.0523320328317017,0.0148559530284579,-0.0073618026400289,0.535519695281982,-0.711017632484436,-10.8013831138611
1655.090672,-0.0403362369922398,-0.0210150821352032,-0.0101434816063911,0.992239579558373,-0.0357017815113068,-10.0255394935608
1655.110034,-0.0194078144070207,-0.0132846651997872,-0.0052704677259329,0.0643549770116806,0.148470783233643,-11.1587995529175
1655.129994,0.0188245674290887,-0.0036305328932168,-0.0069811703267232,0.0181891307234764,-0.470281602442265,-8.15564317703247
1655.150036,-0.0602609172979551,0.0122840552934885,-0.0052555805439069,0.283144462108612,0.0563910320401192,-10.9200126647949
1655.170034,0.0969823436242921,0.020021064914025,-0.0050297961790264,0.693349575996399,-0.689631028473377,-10.3184975624084
1655.1900400000002,-0.0551274312208956,-0.0166835326008356,-0.0070398405371312,0.621782487630844,-0.0733046472072601,-9.68921813964844
1655.2100340000002,-0.0343123678783332,-0.02707957598655,-0.0027718969311824,0.41325352191925,0.288621079921722,-9.94032440185547
1655.230039,0.0044739007080169,-0.0101188187215909,-0.0031249305573693,-0.0268092922866344,-0.524364025890827,-8.99232959747315
1655.250001,-0.0432921686556177,0.0222914041040453,-0.0033176156199445,0.166369962692261,0.0498113572597504,-10.14094581604
1655.270002,0.0362002811899619,0.0096383330732106,-0.0014731117525147,0.858893486857414,-0.527910363674164,-10.7016562461853
1655.290007,-0.0670670374477425,-0.0243822894025554,-0.003792387787034,0.57358270585537,-0.250223379582167,-9.13225250244141
1655.3100020000002,-0.0208663262068416,-0.0157106625365966,0.0006923911946834,0.0080655336380004,0.384456413984299,-10.5539442062378
1655.330002,0.0020308003133097,0.0077879431109575,0.0011853983685938,0.0359884977340698,-0.709771009162068,-7.9441520690918
1655.352204,-0.0324862150501779,0.0106651239845514,-3.88212557777323e-05,0.468591514229774,0.0326075911521912,-10.841900062561
1655.370002,0.0521751276596845,0.0063364889546104,0.0034960090647105,0.560774666070938,-0.672049033641815,-10.1079460144043
1655.390004,-0.0678590290363687,-0.0288816294548132,0.0019327943724665,0.5620038241148,-0.238096350431442,-9.22243547439575
1655.410002,0.0002002215738713,-0.0084500206070618,0.0051006219281884,0.116374325752258,0.287800119817257,-10.2519969940186
1655.4300010000002,0.0395578629642286,-0.0137945149818284,0.0070962323243678,0.182992577552795,-0.451713737472892,-8.13012485504151
1655.450002,-0.0309259395705783,0.0261449271382816,0.0053943669653363,0.36762393116951,0.0036823213100433,-10.5719793319702
1655.470002,0.0332775171759622,0.0283386466333926,0.0081357922650831,0.721515345573425,-0.310105291008949,-10.3915258407593
1655.490002,-0.0456782700031552,-0.0321958177989872,0.0053135775663471,0.697247448563576,-0.174722719192505,-9.70095262527466
1655.510002,-0.0180521622665807,0.0005682722000957,0.0088673989225821,-0.255925357341766,0.535949999094009,-10.4418841362
1655.530001,0.0247129200359503,0.0129393698988816,0.0077607566146122,0.286621594429016,-0.588264235854149,-8.88721017837525
1655.550005,-0.0371559576488226,0.0160479205353887,0.0053798514126593,0.360252737998962,0.0906226448714733,-10.7344348907471
1655.570029,0.0566817531740607,0.0033844882244174,0.0083011385336317,0.825907522439957,-0.364059454202652,-10.4129219055176
1655.589842,-0.0737615054522936,-0.0261962989258534,0.0064414224176113,0.254474148154259,-0.362090042233467,-9.04517831802368
1655.610643,0.0171613232447539,-0.0127443289687774,0.0077927759199812,-0.0267327427864075,0.325480452179909,-9.65417318344116
1655.630001,0.0148692794870606,0.0071111592836652,0.0078449277178754,0.091252601146698,-0.811049660295248,-8.53137226104736
1655.650002,0.011283867942099,0.0157568382007769,0.0055865466089269,0.517298078536987,0.289587372541428,-10.0600432395935
1655.670001,0.0378488359652788,-0.0064984989923623,0.0106839772719842,0.721567344665527,-0.531556601077318,-10.1324484825134
1655.690038,-0.0255629147722874,-0.0224964705488411,0.0062256364679078,0.130347662046552,-0.369720041751862,-8.77508707046509
1655.710001,0.0075589711400183,-0.0060710019071226,0.0098162330693467,0.0903866171836853,0.537926894426346,-9.38639183044434
1655.730002,0.0423796988504781,0.0109661895043873,0.0116180188011382,0.00464528799057,-0.835220345854759,-8.84244546890259
1655.750001,0.0063019360952278,0.0100972082929671,0.0070790722896159,0.814240944385529,0.164368557929993,-10.1050102233887
1655.770002,0.0316317512630452,-0.0056329580525694,0.0138623259308036,0.489046502113342,-0.387992644309998,-10.1837288856506
1655.790007,-0.0175209512686218,-0.0213531194341414,0.0092974543588251,0.271148677170277,-0.219691893458366,-8.79844083786011
1655.8100020000002,-0.0093715075726916,-0.000369905751021,0.0125251245261871,-0.153090357780457,0.40398510992527,-9.38589820861816
1655.830003,0.0666458911142244,0.0167155686545295,0.0128640495455224,0.281682795286179,-0.747969490289688,-9.36151580810547
1655.850002,-0.0059829483291116,0.0052434471741205,0.0101568838171343,0.514532053470612,0.205213505029678,-10.1538137435913
1655.869633,0.0214821385861402,0.0056056462840806,0.0157190099490355,0.95363130569458,-0.190602117776871,-10.2090497970581
1655.890678,-0.0094044876356535,-0.0267845540671781,0.0134310559746945,0.135972133278847,-0.262294945120812,-9.140514087677
1655.91004,0.0044532960074217,0.0065877744879093,0.0158263410264664,-0.13642361164093,0.363207077980042,-9.49796047210693
1655.9300030000002,0.0658737484802285,0.0201690978533045,0.0145259854630184,0.511502885818482,-0.797002524137497,-10.1733037948608
1655.950002,0.0227608721214179,-0.0014682232538314,0.0119884948237424,0.441692495346069,0.19296156167984,-9.93577547073364
1655.970001,0.0094690677558338,0.0061028254849394,0.0163963567094223,0.91755765080452,-0.0781768757849932,-10.5858974456787
1655.990004,0.0192056698199354,-0.0234282096567823,0.0127659589272499,-0.0920702636241913,-0.268692618608475,-8.83719825744629
1656.010006,0.0081468904863075,0.0060721763020267,0.0145249398467532,0.237663507461548,0.432803332805634,-9.50033197402954
1656.030001,0.0489763585910244,0.0200743764298461,0.0151544193029709,0.0222657106816769,-0.808925378322601,-9.9081353187561
1656.0500040000002,0.0278416695664683,0.0022903413503957,0.0101340003382795,0.895498830080032,0.22537110671401,-9.9893292427063
1656.0700020000002,-0.001350991016541,0.00022382295591,0.0173723603083007,0.578011679649353,-0.141149474680424,-10.43353099823
1656.090006,0.0292146753978648,-0.020503248593981,0.0122330226151084,-0.0129180312156677,-0.19588476344943,-8.80334930419922
1656.110002,-0.004294873425339,0.0074372419479212,0.0137667827149829,0.185856068134308,0.439538490772247,-9.65530824661255
1656.129996,0.0465614575224544,0.0210720534263151,0.0147370016910277,0.0596169978380203,-0.673469114303589,-10.3207187652588
1656.149628,0.0055338792239507,0.0032719517913028,0.009401975150204,1.07276839017868,0.175159848481417,-9.97103748321533
1656.1706350000002,0.0093259714888644,-0.0074162387200491,0.0158268329419292,0.397600507736206,-0.142203266918659,-10.4249667167664
1656.190006,0.0051715393363309,-0.0167483286146165,0.0110137752828278,0.0883231043815613,-0.0946659803390503,-8.75610542297363
1656.210001,-0.0053825782899823,0.0135620685916173,0.0135225952164358,0.0272295951843262,0.287002508342266,-9.60313282012939
1656.230005,0.0328097832168181,0.019515545550444,0.0131030218642801,0.378735889494419,-0.590300667285919,-10.7486824989319
1656.250003,-0.0023001405999535,0.0103358694361348,0.0092227332759154,0.918165767192841,0.0698839962482452,-9.70677690505982
1656.270002,-0.008187782320321,-0.0229886019939774,0.014765385899733,0.379654064774513,0.12265017926693,-11.3071989059448
1656.290003,0.003639483659619,0.001267382787191,0.0115073165167269,-0.0718922138214111,-0.31560805439949,-8.30209760665894
1656.3100040000002,-0.0316067398000357,0.0088698025143295,0.0123505453145127,0.237499094009399,0.34931958951056,-10.4692692756653
1656.330002,0.0637205765019795,0.0272368885630481,0.013136569646629,0.524064159393311,-0.733534772694111,-10.5962109565735
1656.350002,-0.0257978452704859,-0.0093626999142151,0.0103836483233525,0.91933907866478,-0.0563416063785553,-9.40227537155151
1656.370006,-0.0138379235623493,-0.0160755255623107,0.0145286071972581,0.273713564872742,0.22215590775013,-11.6765937805176
1656.390004,0.0295703404566368,0.0012738539137984,0.0140435761837188,-0.102668243646622,-0.382713103294373,-7.91297702789307
1656.410002,-0.047143123647903,0.0123308453785464,0.0135439273743057,0.335899347066879,0.328642828017473,-10.9398344993591
1656.432195,0.0960280669229536,0.0299093227635284,0.0139121032541794,0.45637092590332,-0.566788226366043,-10.0131391525269
1656.450002,-0.0553284833200787,-0.0237683813314621,0.011800456350494,0.863355201482773,0.0666569173336029,-10.0458921432495
1656.470001,-0.0041110942345563,-0.0053443300873117,0.0164026479246958,0.199920442700386,0.333797830343246,-10.7923919677734
1656.490006,-2.19046783447752e-05,-0.0073875996764085,0.0144849566833383,0.0483939960598946,-0.23699005395174,-8.57108030319214
1656.510001,-0.0474839154544616,0.0238149787811938,0.0136859867838512,0.181498426198959,0.293039473891258,-10.2735420227051
1656.530002,0.0474039987512019,0.0248388617572388,0.0136867143594887,0.742305469512939,-0.308962386846542,-10.5040486335754
1656.5500020000002,-0.0691407669133773,-0.0143561820687182,0.0103234048948565,0.903652703762054,-0.0161476016044617,-9.70947780609131
1656.570011,-0.0194431440217508,-0.0146638801619111,0.0144905332245107,0.0609815001487732,0.583284494280815,-11.0549978256226
1656.590012,-0.0164612429155956,0.0056519921982378,0.0129736221761377,0.0992045521736145,-0.292260742932558,-8.55701713562012
1656.610011,-0.0469138494969406,0.0190738968409018,0.0100362333828638,0.208191925287247,0.381334756314755,-10.3788146018982
1656.6300170000002,0.0324361348366026,0.0196108997410015,0.0111994896448951,0.770353782176972,-0.282154148817062,-10.9682343482971
1656.650043,-0.0717979910309348,-0.0135014166933759,0.007405405512954,0.670502471923828,-0.0449473768472672,-9.63407459259033
1656.670017,-0.034658622627444,-0.0136480340145287,0.0092626402729203,0.225344067811966,0.574197922646999,-11.4164638519287
1656.689668,-0.015855491101149,0.0059170283429451,0.0088850685828186,-0.0752208173274994,-0.415455007553101,-8.36922016143799
1656.710663,-0.0494217042417513,0.0158753203483865,0.0059943360655481,0.545684659481049,0.435604965686798,-11.2996605873108
1656.7300260000002,0.0344033222898768,0.0200859205826166,0.008185048200679,0.683009624481201,-0.324291670322418,-10.7226147651672
1656.750027,-0.0750903104423054,-0.0256216285105856,0.0033544848728891,0.781200337409973,-0.290479046106339,-10.191502571106
1656.77003,-0.0451466703020251,-0.0080897718336096,0.0070003769860554,0.0289389342069626,0.679105335474014,-10.9929027557373
1656.790069,0.0061343484159001,0.0005494475564411,0.0076932169529904,0.0522893011569977,-0.382436833530664,-8.5205304145813
1656.810036,-0.0525065726285904,0.0180742173617491,0.0037890269663822,0.400877414643765,0.242568162083626,-10.8425727844238
1656.830036,0.0617593019767269,0.0146010626993514,0.0061393679772529,0.739164423942566,-0.315615403652191,-10.6250773429871
1656.850052,-0.0757724400034669,-0.0280898832321048,0.0035656827580823,0.775126016139984,-0.32725937962532,-9.98027124404907
1656.870056,0.0025073603437308,-0.0135649822083236,0.0061139642601905,-0.166825222969055,0.677684612572193,-10.1369499206543
1656.8900600000002,-0.00078917372736,-0.0004188435276264,0.0059400872353503,0.251636961102486,-0.417486426234245,-8.6258957862854
1656.910059,0.0047814509661729,0.0200046501353419,0.0030025022262781,0.283930200338364,0.201075315475464,-9.72167463302612
1656.930058,0.0468433140157037,0.0029146374663955,0.0074996900596143,0.783502107858658,-0.235680854320526,-10.7026983261108
1656.950064,-0.0194312405197635,-0.0184655633579961,0.0035696876790636,0.34834942817688,-0.365360009670258,-9.11701717376709
1656.970064,0.0061846875238821,-0.0167999167692399,0.0050831990838129,0.142014366388321,0.799693465232849,-9.81350250244141
1656.990068,0.0461342140293415,0.004639425526728,0.0074722912797313,-0.13163412809372,-0.642793606221676,-8.56212396621704
1657.009643,0.0380150232009503,0.0184683725787837,0.0023642422388397,0.582122899591923,0.25553867816925,-9.44671421051026
1657.030707,0.0600384513706255,0.0029796496105025,0.0083448498859894,0.522773450613022,-0.111068141460419,-10.7441213607788
1657.050072,0.0317983179104145,-0.0156063291134029,0.0031624245010068,0.410651755332947,-0.275683122873306,-8.86588401794434
1657.070074,0.0049140276280728,-0.0163653125353189,0.0041236925848891,0.0593845725059509,0.753130507469177,-9.48178415298462
1657.090079,0.0854649872265984,0.0136773496194746,0.0061187410244665,-0.119803655147552,-0.441589170694351,-8.52836637496948
1657.110079,0.0270106337267006,0.0155023744509119,-0.000886128536975,0.612057683244348,0.460005122423172,-9.14443140029907
1657.129996,0.0719573280833894,0.0066274505000669,0.003364224763543,0.439458149671555,0.0719718813896179,-10.0694234848022
1657.150081,0.0075341863416169,-0.0196002229502404,-0.0014327037261176,0.408189916610718,-0.186762470006943,-8.85053558349609
1657.170084,0.0011922870862737,-0.0107215394443319,-0.0010230287375021,-0.202086234092712,0.841521126031876,-8.78166027069092
1657.190092,0.0606026187516047,0.0154342088872287,-0.0012876288154562,0.0941805720329285,-0.308147558197379,-9.10643692016602
1657.210088,0.0328966236361343,0.0029161610313226,-0.007469104304324,0.229428078234196,0.301048848032951,-9.01295938491821
1657.230093,0.006782205613282,0.0233395895947952,-0.0038214192622715,0.778951525688171,-0.0621035873889923,-9.83352098464966
1657.250097,0.0157749748019424,-0.0175472712906782,-0.0081229337682879,0.266530203819275,-0.0996440920978785,-8.84134817123413
1657.270103,0.0004435496148193,-0.0044800866988326,-0.0081663190794379,0.143315488100052,0.781364510953426,-8.56779289245606
1657.2923010000002,0.015656780039016,0.0063176964168434,-0.0066460613806499,-0.136755013465881,-0.562823441624641,-9.47243175506592
1657.3101,0.0376353688004341,0.0133743666235808,-0.0139111859431023,0.470434844493866,0.280912500619888,-9.03185386657715
1657.33011,-0.0260708234944988,0.0187393287532759,-0.007932156455684,0.706322474032641,-0.0934191823005676,-9.84345359802246
1657.350105,0.0079058107785082,-0.0150133025341246,-0.0122111261037913,0.1401402592659,-0.120914407074451,-8.81641139984131
1657.370109,-0.009114545193213,0.0017581835098612,-0.0113829982585007,0.221310114860535,0.5379061460495,-9.0516284942627
1657.390119,0.0193053852032603,0.0090818952512738,-0.0071567453831391,-0.296676278114319,-0.502482165396214,-9.62367858886719
1657.410115,0.0190235237979581,0.0205491491832009,-0.0142126350765126,0.86347738057375,0.122025716304779,-9.26417484283447
1657.430115,-0.0207679519027208,0.0104321425652568,-0.0080480187924481,0.425980800390244,-0.0705144435167313,-10.5480987548828
1657.450113,0.0206190537319609,-0.0163857963875773,-0.010782332904386,0.392064654827118,-0.122167336940765,-8.86863784790039
1657.470113,-0.0150480571427628,0.0098714003942488,-0.0103422645146949,-0.0365290701389313,0.354485967755318,-9.29930686950684
1657.4901200000002,0.0447921147753869,0.0145919161018297,-0.0075952501421226,-0.0205544114112854,-0.471464176848531,-10.163809967041
1657.510148,0.0316875900596557,0.0130433326100374,-0.0122826562461426,0.587801277637482,0.195152461528778,-9.39046335220337
1657.530121,-0.0224689745635747,0.0127210209820287,-0.0073866252257285,0.683777862787247,-0.023460653424263,-10.2754188537598
1657.549634,0.0305341821677109,-0.0162321703363447,-0.0100230932271819,0.223420837521553,-0.128317093849182,-9.15142936706543
1657.570756,-0.006833366715213,-0.0014111820695336,-0.0095384502066375,-0.147883808612824,0.509232550859451,-8.80973634719849
1657.5901250000002,0.0413650834090637,0.0257968195391577,-0.0081488417549218,0.0916828185319901,-0.332358831167221,-10.4032254219055
1657.6101210000002,0.0274446828394665,0.0207719490117626,-0.0146497566487545,0.852575254440308,-0.0018515363335609,-8.61044054031372
1657.630121,-0.0197499565250754,-0.0180416127157432,-0.0102514013016267,0.51660863161087,0.271483156085014,-11.0274894714355
1657.650122,0.0494217971121002,-0.0156204294274664,-0.0121850253486731,-0.105141687393188,-0.0377018660306931,-8.33206052780151
1657.670121,-0.0323706816730023,0.0094609736396149,-0.0151467485702001,0.30868536233902,0.399429626762867,-8.70737743377686
1657.690157,-0.0017505573406544,0.0227061719741702,-0.0124130823757896,-0.185513663291931,-0.255310619622469,-10.5180698394775
1657.710127,0.0173374344288072,0.0240420505570322,-0.0187825022654356,1.08280348777771,-0.0984683692455292,-8.90226383209228
1657.7301220000002,-0.0540244884580904,-0.0193554464788004,-0.0142548602665626,0.311988461017609,0.309254783391953,-10.9614612579346
1657.750121,0.0359052724088519,-0.006032114545766,-0.0159313777609402,0.0098199129104614,-0.128342747688293,-8.12782649993897
1657.770121,-0.0451446283083861,0.0037154553630242,-0.0183586162492276,0.296732544898987,0.335114324092865,-9.31416149139404
1657.790123,0.0098086113387419,0.0258844988542492,-0.0147458741604909,-0.0386468529701233,-0.345172347128391,-10.4580874443054
1657.810122,-0.0268126427241725,0.016301658485057,-0.0212327786367455,1.17431652545929,-0.293521752581,-9.23832788467407
1657.830121,-0.048141623028548,-0.022493365746752,-0.0177808452041564,0.123992335796356,0.35918088555336,-10.843284034729
1657.850128,-0.0024877587671845,-0.0033464852693018,-0.0169335960982358,0.133855594694614,-0.246433293819428,-8.30487937927246
1657.870753,-0.0553728499284523,0.0144113779190358,-0.019215255543147,0.0212409615516663,0.082219922542572,-9.32467365264893
1657.890157,0.048151068847025,0.0260502606351251,-0.0169635061207597,0.56575710773468,-0.176218381524086,-10.3732128143311
1657.910134,-0.0572201795042266,-0.003960957249982,-0.019087476358999,0.704747474193573,-0.390993005037308,-9.19266443252564
1657.930122,-0.0220781476692276,-0.0139568267261526,-0.0167694303202714,0.328984016180039,0.385299900174141,-11.0689800262451
1657.95012,0.025465315388892,-0.0033607618328526,-0.0148608340702899,0.14747431576252,-0.448804521560669,-8.43560771942139
1657.9699950000002,-0.0420122091192901,0.0068849128510708,-0.0173307328499847,0.237726993113756,0.0985864371061325,-8.84180421829224
1657.989998,-0.0398864639137074,0.0255787092415476,-0.0129671910561295,0.223038512468338,-0.208269609510899,-10.9790386199951
1658.009994,0.0055129552991007,0.0109992754354042,-0.0173252114658396,0.930807495117188,-0.458010047674179,-8.90062227249146
1658.029996,-0.0812451637549856,-0.0257025502612883,-0.0148386094575139,0.240390294790268,0.419325765967369,-10.5890131950378
1658.049996,0.0215183741491264,0.0052720259711368,-0.0106061908313617,-0.212758058309555,-0.275080859661102,-8.62505445480347
1658.0699960000002,-0.0547484714319996,0.0178216389154754,-0.014829899026614,0.410463219881058,0.154779672622681,-9.45878448486328
1658.0899980000002,0.0309047418727578,0.0180832385169811,-0.0112838703093534,0.380156850814819,-0.208995114266872,-10.3843994140625
1658.109994,-0.0577029521570755,-0.0097608702092318,-0.0151913453940634,0.854884076118469,-0.476577526330948,-9.41539249420166
1658.130003,-0.0519822944902081,-0.0172678634261912,-0.0129872356643354,0.0049097001552581,0.51565098464489,-10.5253035545349
1658.153178,0.0021291552355351,0.0022648701665832,-0.0105965233195108,0.13167288005352,-0.469571775197983,-8.36124153137207
1658.169996,-0.057140315679512,0.0180742420033878,-0.0156069980994942,0.158963322639465,0.196477949619293,-9.66010255813599
1658.1899970000002,0.033467973207759,0.0182753771932001,-0.0115371718556743,0.664685702323914,-0.256736522912979,-10.5444235801697
1658.209996,-0.0706004415381465,-0.0183408052639038,-0.0138588960159143,0.586435556411743,-0.618478937447071,-9.32263517379761
1658.229996,-0.0292349485644822,-0.0145639252124417,-0.0128137381695557,0.102868521213531,0.634424933791161,-9.9717700958252
1658.249996,0.0027761118942073,0.0007950672438956,-0.0099829596247503,0.155239367485046,-0.543336488306522,-8.84154319763184
1658.269994,-0.0220833677462745,0.003679359112959,-0.0147202489867801,0.0952485799789429,0.108597618341446,-9.31616334915161
1658.289999,-0.0469287218910242,0.0215680578475909,-0.0086104859817319,0.628369832038879,-0.312117052078247,-10.6166942596436
1658.309995,-0.0144235311663615,-0.0100925760495718,-0.0119601484911074,0.516921782493591,-0.488761154562235,-9.3833122253418
1658.329995,-0.0585209062531634,-0.0213893412670521,-0.0099637390577984,0.17481644153595,0.492215685546398,-9.80799741744995
1658.349995,0.0028717893925334,0.0084090375153915,-0.0057425440581719,-0.0979264140129089,-0.643489491939545,-9.11682119369507
1658.370016,-0.016246308289753,0.0183229811994995,-0.0120790786416108,0.649022519588471,0.0877842932939529,-9.36150341033936
1658.389996,-0.0128109274100527,0.0012719776279669,-0.0053376473133663,0.513341569900513,-0.16070893406868,-10.8147323608398
1658.410001,-0.0210813117582442,-0.0159176315881338,-0.0099522173939447,0.395902991294861,-0.580064396560192,-8.81590270996094
1658.4307660000002,-0.054416304450504,-0.0075753508833364,-0.008236568533464,0.173071205615997,0.523312744498253,-8.97394151687622
1658.449994,0.0075415941907874,-0.0068706130958247,-0.0043499864809341,-0.176835018396378,-0.567674350738525,-9.30552015304565
1658.4699950000002,-0.0090781919185022,0.0124492810096072,-0.0114289251242443,0.384905627369881,0.0425437122583389,-9.24141731262207
1658.489997,-0.03520805124585,0.0143364031848179,-0.0042046746118068,0.502827954292297,-0.377709751203656,-9.88485050201416
1658.509995,-0.0198285075222877,-0.0202526652475163,-0.0061870386069681,0.519700717926025,-0.496823737770319,-9.19536952972412
1658.529995,-0.0175405123059367,-0.0057500845919511,-0.005096744868535,0.0322428822517395,0.241808792948723,-8.50181398391724
1658.549994,-0.0132283115253462,-0.0026812221589616,-0.0006219880725577,0.082236585766077,-0.631890368461609,-9.28290748596191
1658.569999,0.0207447528688556,0.0155560192761515,-0.0058918622760308,0.286827474087477,-0.0609424352645874,-9.14400272369385
1658.5899980000002,-0.0210184455302441,0.0169470160633869,0.00110632983039,0.758638560771942,-0.436026604473591,-9.93830862045288
1658.609996,0.0005962662852771,-0.0171849327050483,-0.0017948387870511,0.164518654346466,-0.443959909677506,-9.47806367874146
1658.629994,-0.0013922204210309,-0.0026416996632514,0.0005742883459571,0.413806790113449,0.402068388462067,-9.11954107284546
1658.649996,0.0004957769281286,0.0115913245753438,0.0060326946414549,-0.117706000804901,-0.623426628112793,-10.4284664154053
1658.669996,0.0344969598659115,0.0361506124052,-0.0009353468036353,0.774731409549713,-0.0923319101333618,-9.56646518707276
1658.6899970000002,-0.0143792317880127,-0.0066713298091237,0.0063799116794763,0.7966792345047,-0.09133730083704,-11.6925258636475
1658.710002,0.0388334040538238,-0.0065071865792574,0.0049963562972423,0.13503395318985,-0.374564535543323,-9.35923910140991
1658.730759,-0.0406130273132671,-0.0016132644570096,0.0071803466135256,0.158837839961052,0.249953609704971,-10.3061135292053
1658.749996,0.0965848664613615,0.0330048842751839,0.0078667420854651,0.136708956956863,-0.543923047184944,-10.354932975769
1658.769994,0.0155958336543282,0.0033699949461247,0.0039752605561098,0.871171259880066,0.071286004781723,-10.1770536422729
1658.790002,-0.0011871264716981,0.0060760049809185,0.0101807578144082,0.661564368009567,0.0198458105325699,-11.5935819625855
1658.809994,0.0367509825331013,-0.0227815898584103,0.0080575472872848,0.226446002721787,-0.335255163908005,-9.81691474914551
1658.829995,-0.0282949343341332,0.0014739250227612,0.0093551553561035,-0.117487633228302,0.317964506149292,-9.66835231781006
1658.8499940000002,0.0797707319030589,0.0249009145966297,0.0092446106716533,0.468256568908691,-0.379191614687443,-10.8816819190979
1658.869995,0.0085915225281978,0.0149462079163285,0.0059980040078666,0.990546762943268,-0.197678011655808,-9.49231424331665
1658.889998,0.0098360130185115,-0.0221460559123583,0.0098458787879177,0.452313852310181,0.23639532327652,-12.2295499801636
1658.909997,0.0263238697916149,-0.0059514820735501,0.0086874810788017,0.114618301391602,-0.368550473451614,-8.87060852050781
1658.929996,-0.0278465884251891,-0.0011321981211269,0.0079691842499433,0.0808431386947632,0.499070540815592,-10.1777860641479
1658.949996,0.0793459243738972,0.0248321344641155,0.0081342194612647,0.436503927409649,-0.410892325639725,-10.7487018585205
1658.969996,0.0022839620732588,0.0008284656524923,0.0049198565777448,0.856538202986121,-0.234274813532829,-9.4434889793396
1658.989996,-0.0070584253779159,-0.0215311407520652,0.0077462212583727,0.512761676311493,0.174295081198216,-12.3540102005005
1659.012152,0.061110710344218,-0.0277667179721622,0.0089417877021564,0.0172896385192871,-0.281176543235779,-8.65521392822266
1659.029995,-0.0279048993455618,0.0049303560019706,0.0052527251838517,0.330165934562683,0.335005503892899,-9.43910007476807
1659.049995,0.0356085177776274,0.0260064787385865,0.009354609703966,-0.0151817560195923,-0.290665704011917,-11.0628671646118
1659.069995,0.0319330771808643,0.0111767473135835,0.0044745842379274,1.24946039319038,-0.491088077425957,-9.35947360992432
1659.089997,-0.0247139758757953,-0.0249219807934686,0.0071369205153222,0.312074780464172,0.157811790704727,-11.8462949752808
1659.109996,0.0592072452660856,-0.0133042935263081,0.009721924258329,0.159933221340179,-0.278417801856995,-8.57160205841064
1659.129996,-0.0409552016259816,0.002202978300491,0.0074447952056928,0.112414753437042,0.181009721755981,-9.76502265930176
1659.149996,0.115891328291919,0.0237482397250075,0.0094532232487338,0.371162658929825,-0.317072597146034,-10.6915619850159
1659.169994,-0.0112004560765008,-0.0032668380483641,0.0069594976393088,0.979844552278519,-0.551941359043121,-9.544078540802
1659.189998,0.0251025985160101,-0.0223419178062859,0.0099791309458585,0.29299396276474,0.451005065441132,-12.0240022659302
1659.2099950000002,0.0462594034371842,-0.009085709371551,0.0113103055575172,0.324972933530808,-0.493900889158249,-8.83824634552002
1659.230017,0.0020537291990627,0.0043514846570578,0.0086202615883365,0.135705494880676,0.183837790042162,-10.1601131439209
1659.249995,0.100164964230388,0.0216472626286827,0.0125490765244932,0.589861959218979,-0.303188249468803,-11.219486618042
1659.270001,0.0319126770110487,-0.0001999087301068,0.0101772386540283,0.84551465511322,-0.636939173936844,-9.94299812316895
1659.290787,0.0374028940031703,-0.0258210753745651,0.0116212031133843,0.417189218103886,0.458266291022301,-12.0131847381592
1659.309994,0.0961878794384529,-0.0118721604860431,0.0162175082728138,0.0762470662593842,-0.468807697296143,-9.03653774261475
1659.3299960000002,0.0326585452518166,0.0014643273449149,0.0092809440614272,0.434634438157082,0.136128252744675,-9.78669519424438
1659.3499940000002,0.0688243206315769,0.018741284578855,0.0126121758086883,0.166754573583603,-0.0838327974081039,-11.2519159317017
1659.369995,0.0692637540644586,-0.0012777845029917,0.0091861623913446,0.963329517841339,-0.628867001831532,-9.99436874389648
1659.389997,-0.0005400516870317,-0.0322300049767475,0.0106740144451479,0.282915216684341,0.5251430824399,-11.1100226402283
1659.409995,0.0908272696243212,-0.0087841301575119,0.0137885771976357,0.135334730148315,-0.299818927049637,-8.80240154266357
1659.430002,0.0126103636754508,-0.0015290190811398,0.0097713077889366,0.278145855665207,0.172282591462135,-9.35964641571045
1659.449996,0.098194779477965,0.018193451726635,0.0136271498595525,0.463874769210815,-0.0877622231841087,-10.4013832092285
1659.469996,0.0190647348562265,-0.0114887571979036,0.0096374043993124,0.923650008440018,-0.707937051728368,-9.90538558959961
1659.489997,0.026882962844441,-0.0259318638270363,0.0114125356751832,0.156345442682505,0.536527223140001,-10.3321151733398
1659.509996,0.0392910467921715,-0.0150584664337775,0.0147307264547214,0.220337155461311,-0.189333942532539,-9.22120237350464
1659.529995,0.0386912944584853,0.0109835481073967,0.0090550477457575,0.0851402759552002,0.119964801520109,-8.63520727157593
1659.549995,0.0672000382624482,0.0017208751071843,0.0130681320854161,0.600655496120453,-0.0352293759584427,-10.8215301513672
1659.5700020000002,0.0357463989831701,-0.0053342297951224,0.0106000129483922,0.547648387402296,-0.613921730220318,-9.2834529876709
1659.590829,0.007659474345605,-0.0302888461956953,0.0110016802107788,0.421653771400452,0.523577618598938,-10.2661214828491
1659.609995,0.0405152232511388,-0.0078568903420412,0.0129810475429907,0.0036335945129394,-0.424592453241348,-9.00650539398193
1659.629994,0.045361308518027,0.0021053839771019,0.0078329120080299,0.41472025513649,0.372053933143616,-8.59432668685913
1659.649996,0.0436768832399419,0.0064147892965709,0.0148448293000675,0.344047951698303,-0.223313298821449,-10.6287219047546
1659.669994,0.0466937037748225,-0.0031954042828572,0.0090762395846233,0.608821888267994,-0.774642973393202,-9.36659641265869
1659.6899990000002,-0.0051744837273443,-0.0272834631095936,0.0086956444963929,0.503183075785637,0.462122866511345,-9.78661689758301
1659.709994,0.0509075480124042,-0.0112736655491181,0.0145939232968291,-0.087054455280304,-0.0628527596592903,-8.81604928970337
1659.729995,0.0382439245685273,-0.0020983153554858,0.007634859604841,0.411218938231468,0.178193306922913,-8.46555662155151
1659.749995,0.0148932429665505,0.0070818569353439,0.01344405788272,-0.0416190922260284,-0.11805961728096,-9.94005661010742
1659.769995,0.0161876908099366,0.0069774089370375,0.0097164178174772,0.782824397087097,-0.474861299991608,-9.29727535247803
1659.790033,-0.0060252587403198,-0.0124048462243072,0.007592242722961,0.303025141358376,0.466191223263741,-8.62896013259888
1659.809994,-0.0238644277589877,-0.0240534807265037,0.0150011277447839,0.308490327000618,-0.168885642290115,-9.06991424560547
1659.8299960000002,0.0181962323036444,-0.0078754059406349,0.0086802253849073,-0.12441633939743,0.19073166847229,-8.63156795501709
1659.849996,-0.0164927510715599,0.0175196075558473,0.0130015644184478,0.303048777580261,-0.304177337884903,-9.59014072418213
1659.872141,-0.0039574924476811,0.0039561701881495,0.0109751247060918,0.584909296035767,-0.541273872554302,-9.36836824417114
1659.889997,-0.0231018637834286,-0.0234976260776866,0.0095561836643799,0.466949570178986,0.385771963000298,-8.60123052597046
1659.909999,-0.0203203424466183,-0.0050211340530619,0.0165730173295213,0.0761123955249786,-0.166722366213799,-9.40987701416016
1659.929995,0.0309577406742737,0.0064474242360353,0.0099942844514013,0.123598682880402,-0.0832704663276672,-8.06794424057007
1659.9499950000002,-0.0176273123043841,0.0104748363829046,0.0145994116577754,0.328790293633938,-0.324027100205421,-10.2256081581116
1659.969996,0.0319340888270289,0.0044314140251284,0.0143669301138365,0.526198950409889,-0.572012668848038,-9.43344039916992
1659.990029,-0.0249466977108504,-0.0137520462013014,0.0143042972971195,0.618556326627731,0.30141071677208,-9.05776767730713
1660.009996,-0.0012877038907099,-0.0099350523139818,0.0203920349826209,-0.120039999485016,-0.213172484189272,-9.75781192779541
1660.029994,0.0555663783013624,0.0070953786924339,0.0141978254146703,0.498582828044891,-0.16910383105278,-8.43239517211914
1660.049996,0.0022806557290488,0.0167204962720915,0.0191372689511656,0.0366123497486115,-0.23549931012094,-10.2546178817749
1660.069997,0.0302363883118081,0.0143841857412799,0.019899004306313,0.881900703907013,-0.533856236934662,-10.0102621078491
1660.090028,0.0036250015074219,-0.020265765396599,0.0168735038189328,0.404764977097511,0.207728064060211,-8.99950199127197
1660.110773,0.0167421786060675,0.00026262994898,0.0227914565747183,0.085839968919754,-0.0088634580373764,-9.84544744491577
1660.129995,0.0427870891279028,0.0278881581224979,0.0181944833760992,0.235332921147347,-0.291986845433712,-8.67934045791626
1660.149995,0.0181162986449252,0.0104161314330383,0.019954266203028,0.517881560325623,-0.0391590297222137,-11.0579568862915
1660.169994,0.0570590201985221,0.0015878647642797,0.0224007182748668,0.675261580944061,-0.484871246293187,-10.0737863540649
1660.1899990000002,-0.0149639849530513,-0.0207918218756622,0.019703083941202,0.373054999113083,0.177127414941788,-9.05027809143066
1660.209996,0.0029930451929334,0.0061988393257287,0.0231752727860005,0.120417192578316,0.144036000967026,-10.511153793335
1660.229996,0.0653501586802422,-0.002571148232638,0.0203039622298493,0.32193089723587,-0.142948450893164,-8.67096815109253
1660.249994,-0.031038238331352,0.0261908499796927,0.0211926491770091,0.368944156169891,-0.0157899290323257,-10.8311239242554
1660.269996,0.0146339100111256,0.0166293151367585,0.0232424462333678,0.754608845710754,-0.263048273324966,-10.1543788909912
1660.29,-0.0262441197134738,-0.0294570993510708,0.0208164841686489,0.472039065137506,0.150615298748016,-9.38153095245361
1660.309999,-0.0299899503828728,0.0136114743744162,0.0235665879857474,-0.150139500200748,0.245164734125137,-10.4160926818848
1660.3299960000002,0.0282089381369147,0.0191449341208886,0.0188188230495799,0.568243217468262,-0.292381554841995,-8.5784592628479
1660.3499940000002,-0.0716279622740165,0.0072833685186045,0.0198289061161437,0.487271952629089,0.197073376178741,-11.7577812194824
1660.369996,0.0314920413534843,-2.85225747244766e-05,0.0225989367705421,0.79724018573761,-0.315090947411954,-10.0552002906799
1660.389998,-0.104558049359062,-0.0309481890395253,0.0193968819527852,0.396803539991379,0.143698371946812,-9.66977596282959
1660.410002,0.0023188236817955,0.0137692596916165,0.022349251086943,-0.157695063576102,0.419545844197273,-10.3754272460938
1660.4300070000002,-0.0308028760755429,0.0166351667528914,0.0196302937093376,0.665320730209351,-0.499953791499138,-8.58026094436645
1660.4507680000002,-0.0530113697428563,0.0036456408882939,0.0202875370352469,0.471528792381287,0.169331288337708,-12.0637184143066
1660.47,-0.0020076637157791,-0.0049650263363524,0.0227575267175104,0.915355837345123,-0.292976109683514,-9.96359376907349
1660.490002,-0.0990726188369592,-0.0264805772978903,0.0197498478680988,0.175424981117249,0.241422098875046,-9.40928249359131
1660.510006,-0.0267243121773975,0.0063561514287759,0.0226434520424915,-0.0041075408458709,0.393651700019836,-10.3498559951782
1660.530003,-0.0289039010575888,0.0212069727231619,0.0193229135384096,0.4332180082798,-0.620967823266983,-8.5642557144165
1660.5500120000002,-0.0693321011965537,-0.006655814379975,0.0179850064552586,0.829147589206696,0.382032281160355,-12.0028957366943
1660.570013,-0.013200670752883,-0.0055716272257682,0.0232180935772558,0.48636726140976,-0.196099507808685,-9.57086849212647
1660.590014,-0.10019131887354,-0.0262620550980159,0.0176293629385016,0.281670618057251,0.186308881640434,-9.08744897842407
1660.610015,-0.0562655795838915,0.0020970073290713,0.0218343034225674,-0.0172279417514801,0.335478010773659,-10.0241006851196
1660.6300170000002,-0.014816007030937,0.0171525619215833,0.0190879744293232,0.384583473205566,-0.48430630415678,-8.73098449707031
1660.6500190000002,-0.0905082201320467,-0.0001258224116671,0.0160251418667222,0.821957352757454,0.362857663631439,-11.1201356887817
1660.6709990000002,-0.0259729849296377,-0.012110160455059,0.0210219829184828,0.444179213047028,-0.0183667212724686,-9.31348934173584
1660.691004,-0.122528040556434,-0.0284404897049654,0.0156906514250404,0.231538128852844,0.308029702305794,-8.95497255325318
1660.711007,-0.0541567757231408,0.0034919790915199,0.0188870515822299,-0.171313786506653,0.534491974115372,-9.38888607025146
1660.733185,-0.0528796746464922,0.0122261862100518,0.0150127426784608,0.530809082090855,-0.634346336126328,-8.75767908096313
1660.750999,-0.0870772992040079,-0.0002416860208305,0.0102101079812683,0.552610722184181,0.493794652819634,-10.2802844047546
1660.7710020000002,-0.0722340774028309,-0.0188223010197333,0.0163584749577316,0.688377720117569,0.0793710470199585,-9.82885875701904
1660.791005,-0.10558189635284,-0.0198156038035359,0.0111552983317093,-0.0404134750366211,0.0729158781468868,-8.33120946884155
1660.810999,-0.0956914764899001,-0.0024953010764045,0.0132399399523731,0.0696287155151367,0.471269947290421,-9.42954835891724
1660.831011,-0.0435663511019401,0.0224758859403177,0.0106257428139284,0.402104493975639,-0.644736981391907,-8.69071073532104
1660.850997,-0.0916451657226765,-0.0012776508714812,0.0062159845503453,0.828120586276054,0.430164444446564,-10.0660911560059
1660.870999,-0.0799484057080378,-0.0114885838409053,0.013624069588137,0.451548738777637,-0.112351477146149,-10.0963066101074
1660.891002,-0.0708662019443353,-0.0163032298685227,0.006832944515392,0.080873966217041,0.0488257233053446,-7.95572824478149
1660.9110030000002,-0.10115879491192,-0.0055025058239427,0.010430049350151,0.0283948123455048,0.439684218168259,-9.58449020385742
1660.931,-0.0305434108645741,0.0252131360395158,0.0083460226238155,0.115143719315529,-0.456251281499863,-8.84002504348755
1660.950063,-0.0870618030531872,0.0017501883448759,0.0027087517296497,1.0521513402462,0.361538523435593,-9.91853141784668
1660.971017,-0.0678863076780913,-0.0093151607115047,0.0113259996256005,0.248489916324615,-0.0415187552571297,-10.0244689941406
1660.991682,-0.0624816631446518,-0.0173827613139251,0.0030916046163477,0.225074672698975,0.177519567683339,-8.29052639007568
1661.010999,-0.090630590494996,0.002259673451378,0.0085571876337634,-0.0368558466434479,0.372581148147583,-9.04606084823609
1661.031001,-0.0256231073344046,0.0170909754313078,0.0065421229338515,0.271503289043903,-0.505359998345375,-9.66661720275879
1661.050999,-0.0552393303891278,0.0088297007514695,0.0003906300867349,0.731821441650391,0.236734399199486,-9.57216110229492
1661.070998,-0.084285915693059,-0.0044864465644836,0.0072706924631462,0.768530385196209,0.201449373364449,-10.3175007820129
1661.091007,-0.0346975137764077,-0.016949739826291,0.0015842575420364,0.0850034713745117,0.0680746525526047,-8.96817436218262
1661.111,-0.0687887784374024,0.0033264308369902,0.0044782493247452,-0.0771558165550232,0.333880203962326,-9.93651857376099
1661.130992,-0.001332735579205,0.0282504897247274,0.0024026490475547,0.503383383154869,-0.588037601113319,-10.2222408294678
1661.1510010000002,-0.0245937003702347,-0.0061030844773653,-0.0036110981785145,0.740440773963928,0.461159014701843,-9.51089105606079
1661.1710050000002,-0.0937168388136018,0.0048733510958463,0.00434313702685,0.754112195968628,0.187898305058479,-10.8305835723877
1661.191004,0.0052707404336389,-0.0135492484887292,-0.0018542743899856,0.10889527797699,-0.0329105705022812,-8.80981760025025
1661.210999,-0.0818618598599396,-0.0017892693476419,-0.0005676910391424,0.15269627571106,0.473536783456802,-10.1452485084534
1661.231002,0.0287420016889798,0.0283397642141913,0.000229148945398,0.316581459343433,-0.31849039979279,-10.1678695678711
1661.2510160000002,-0.0502457802944237,-0.0049132767645702,-0.0056192943785785,1.12024925947189,0.284566016495228,-9.92922868728638
1661.2716380000002,-0.0548354192654839,-0.0093134965908482,0.0008854593067606,0.174696857482195,0.116997507214546,-11.0463971138001
1661.2910020000002,0.005588789346663,-0.0092791789181895,-0.0058470689959448,0.4365238904953,0.120970982313156,-8.2615837097168
1661.310999,-0.0654493854622604,0.0008902008063437,-0.0029807375044516,-0.0402832388877869,0.371964836120606,-9.87060222625732
1661.331,0.0121654962101112,0.0297856756219225,-0.0036037990602973,0.332937180995941,-0.193763199448586,-10.6774454116821
1661.351001,-0.0407290334311449,0.0009223865296965,-0.0094503476264605,1.11054035425186,0.0764390245079994,-9.72246179580688
1661.370998,-0.0568570014901892,-0.0231103780577115,-0.0030315589275702,0.27189556658268,0.429608234763145,-11.2848680496216
1661.391002,-0.0067560256735044,-0.0014465969646032,-0.0090939331541292,0.281840002536774,0.0173681497573853,-8.3053596496582
1661.411002,-0.0799999655147898,-0.0006711686998732,-0.007846047251659,-0.104847985506058,0.417193471640348,-10.0834666252136
1661.430998,0.0373756624106288,0.0296128269915718,-0.0072819120061582,0.871339577436447,-0.116340598464012,-10.7012073516846
1661.451,-0.040641879232259,-0.0084307364793295,-0.0110180310735933,0.873746573925018,-0.0840802669525147,-9.31353788375855
1661.471002,-0.0644264522286777,-0.0248386900129326,-0.0073621192603039,0.175420916080475,0.480815377831459,-11.8749856948853
1661.491003,0.0298046105796319,-0.0145645797582813,-0.0122813785205842,0.267154008150101,-0.0616993516683579,-7.77230129241943
1661.511001,-0.0803738780510049,-0.0076530006150178,-0.0124973147317602,0.131190836429596,0.251782381534576,-9.93067388534546
1661.531015,0.012623193010631,0.0417318753180428,-0.0110566274402038,0.350278103351593,-0.0511785864830017,-10.9494951248169
1661.551633,-0.0101215877582351,-0.0084095310879323,-0.0162205144491668,1.18543794155121,-0.0328898847103119,-9.12064237594604
1661.570997,-0.089868198759387,-0.0222878009505204,-0.0099308081819442,0.131464064121246,0.386397796869278,-11.3502577781677
1661.591003,0.0464263263563395,-0.0072748530311038,-0.0147184467960111,0.247277295589447,-0.131272289156914,-8.17617044448853
1661.610997,-0.0666410617969009,-0.0080997184447533,-0.0158670121140078,0.289187452197075,0.191759480535984,-9.92536191940308
1661.631,0.0408500316150856,0.0207029591700999,-0.0128296061124741,0.308659374713898,-0.0074875116348266,-10.6243041038513
1661.650998,-0.0197263154656337,-0.0056828904311079,-0.0185455112202417,1.06142327189446,-0.254688888043165,-9.67930335998535
1661.670998,-0.0543752697822786,-0.018840248832361,-0.0141096445967357,0.205011701583862,0.460667383670807,-10.6574040412903
1661.691002,0.0265139296633891,-0.0158751620974304,-0.0159749028103772,0.247846680879593,-0.221162647008896,-8.6588981628418
1661.710999,-0.0555814916819432,0.0049386087242338,-0.0184082462110175,-0.0529044806957245,0.249845162034035,-9.54332981109619
1661.731002,0.0597592217603943,0.022691041430995,-0.0161911969504173,0.834114223718643,0.0982347249984741,-10.4782277107239
1661.750998,-0.0196834897031443,-0.0130762866849847,-0.020632479615248,0.773653507232666,-0.400412837788463,-9.43707437515259
1661.771,-0.0476946565187385,-0.0251232047553206,-0.0164315298486371,0.30166749805212,0.615550935268402,-11.3442576408386
1661.791037,0.0287772221732824,-0.0049750473976468,-0.0179613104755151,0.090198278427124,-0.376747572422028,-7.90406703948975
1661.813193,-0.0597838509118194,-0.0011911096139389,-0.0225021146455358,0.193629020452499,0.402810446918011,-9.88578491210938
1661.831012,0.053460246035147,0.0214868806701393,-0.0185399888891949,0.705711197853088,0.150642845034599,-10.4905685424805
1661.850999,-0.0224524924956854,-0.0102120588652038,-0.023327906010741,0.795203601568937,-0.431246128678322,-9.42501440048218
1661.870998,-0.0853304305931246,-0.0152956180971819,-0.0209304286446762,0.291996946930885,0.610662823915482,-11.3235587120056
1661.891002,0.0245211489943384,-0.0102083631964183,-0.020867165191389,0.143716877698898,-0.227792036533356,-8.1384560585022
1661.9110030000002,-0.0894902999739096,0.0006496323663119,-0.0252028763589786,0.238138735294342,0.325215911865234,-10.0070463180542
1661.9309970000002,0.0390417405350655,0.0261375403576752,-0.0214516748628139,0.487126231193543,0.0244148194789886,-10.1069884300232
1661.950999,-0.0614122764495859,-0.0165888272747071,-0.0265429549245838,0.955262553691864,-0.490104629099369,-9.95567255020142
1661.970998,-0.0790745385427329,-0.0196457459623847,-0.0223201942229021,0.177606754004955,0.757557994127274,-10.6720586776733
1661.991038,-0.0079213530464036,-0.0081390736939407,-0.022246011572004,0.368616497516632,-0.428091559931636,-8.94272928237915
1662.011,-0.0783794543002711,0.0117508434329357,-0.029188112199601,0.0838205754756927,0.0641294628381729,-9.35582876205444
1662.031026,0.0005296717499715,0.0156689013284074,-0.0235951562484817,0.76570485830307,0.298929890990257,-10.6052883148193
1662.05102,-0.0547906544849215,-0.0088893792347047,-0.0257494455708039,0.699296003580093,-0.685386796668172,-9.88719930648804
1662.071635,-0.0795454384679015,-0.0272869056892939,-0.023639802429599,0.284768143296242,0.583010518550873,-10.7406426429749
1662.091003,-0.0153218642017198,-0.0029439748482325,-0.0216635192747724,0.266401422023773,-0.532634574174881,-8.95942010879517
1662.111001,-0.0443216482944975,0.008630331533434,-0.0279188988145882,0.209955286979675,0.15593019425869,-9.198779296875
1662.130992,-0.0229756519288232,0.0114850765167974,-0.0223524184733201,0.744338536262512,0.193374291062355,-10.7705839157105
1662.150997,-0.0145052677260261,-0.0098379001937132,-0.0254377714371333,0.613509666919708,-0.670436969399452,-9.68547821044922
1662.171002,-0.0918266316324668,-0.0163798332737626,-0.022253296797397,0.535295103490353,0.556338500976563,-10.5191432952881
1662.191004,-0.001744841664105,-0.0171487506420114,-0.0195385323007716,-0.0432938456535339,-0.528588172793388,-9.15532512664795
1662.210999,-0.0486634962140115,0.0149292773129133,-0.0268732120052356,0.474676784873009,0.080550342798233,-9.31949272155762
1662.231001,-0.0143882665919458,0.0073047381974566,-0.0189830532168638,0.504658484458923,0.101407897472382,-10.9217877388
1662.251002,-0.0023107546270331,-0.0106112381728146,-0.0234213133712861,0.793841350078583,-0.681941571831703,-10.0815939903259
1662.270999,-0.0717775602051749,-0.0084206036836278,-0.0207872885835006,0.299348190426827,0.500976532697678,-9.75938863754272
1662.2910020000002,-0.0028734252245,-0.029185380388032,-0.0168605594351891,0.209118545055389,-0.241442048549652,-10.0053796768188
1662.311002,-0.0222848197487012,0.0246141420853649,-0.0240563937513964,0.303663837909699,-0.278861492872238,-9.2828179359436
1662.331015,-0.0113750827516257,0.0030972171693775,-0.0183705581007361,0.822334837913513,0.083118462562561,-11.0554306030273
1662.351628,0.0040810547232171,-0.0119174299652419,-0.0215204821891629,0.613975596427917,-0.5467579215765,-10.1995988845825
1662.370999,-0.0480714355928881,-0.0157398422611404,-0.0192943862291763,0.343536254763603,0.480140344053507,-9.7012469291687
1662.391002,-0.0043882410160103,-0.0174030174363109,-0.0156260223026941,0.24302285015583,-0.410136061906815,-10.3541551589966
1662.410998,0.0222737176806885,0.0040106341129996,-0.0228964916521139,0.257786257565022,-0.112405616044998,-9.12612419128418
1662.431002,-0.0493609304890901,0.0125605877132463,-0.017070514541417,0.635941690206528,0.0605933547019959,-10.8695161819458
1662.451002,0.0262037065382985,-0.0050944043641171,-0.0191278288140992,0.6819979429245,-0.434511455893517,-10.0489725112915
1662.470999,-0.0573234295534476,-0.0395645807587437,-0.0184579078940162,0.368127220869064,0.337672106921673,-9.94648084640503
1662.491006,0.0355643580672878,0.0090560339439374,-0.01457958554715,-0.101537355780602,-0.376175256073475,-9.84939651489258
1662.510998,0.0107216164984624,0.0045545134136586,-0.0206809022772977,0.697128570079803,-0.0183199197053909,-8.75982885360718
1662.5310000000002,-0.0320894558829022,-0.0057034708081641,-0.0138843487351426,0.49548162817955,-0.0506690964102745,-11.2465113639832
1662.5510000000002,0.0509131072955061,-0.0150955428455239,-0.0175502635002303,0.688342928886414,-0.452294701337814,-9.42447175979614
1662.571001,-0.0366599728757583,-0.0177415513852206,-0.0171543103756776,0.324147176742554,0.329027020931244,-9.27940187454224
1662.591005,0.019456947067844,-0.0203536580013113,-0.0125582013432746,-0.22863661646843,-0.165744167566299,-9.57981100082398
1662.6110150000002,0.0278330084336411,0.0101397209860631,-0.018934178882676,0.562260445952415,-0.249046343564987,-8.88645801544189
1662.631629,-0.0113947062252752,-0.0011147120118778,-0.014266640908047,0.630634158849716,0.0645106285810471,-10.7089636802673
1662.650997,0.039959507549058,-0.021071399117201,-0.0150561548098632,0.674883556365967,-0.46084599904716,-9.51497192382812
1662.6709990000002,-0.0315850496837109,-0.0318819766806458,-0.0161770348510141,-0.224017906188965,0.204726114869118,-8.74717178344727
1662.691001,0.0656902488621896,0.0131463578884539,-0.0130693653065919,0.355902886390686,-0.0219587087631226,-9.8318696975708
1662.711,0.0674150621337813,-0.0142461662880807,-0.0162045953735535,0.301734429597855,-0.34155740737915,-9.08927183151245
1662.731,-0.0189181770715217,0.0122568932982261,-0.0140367492587762,0.698913478851318,-0.0299739420413971,-10.3133504867554
1662.751002,0.0446209821677453,-0.0191875778415152,-0.0140639561135094,0.683636689186096,-0.231133530661464,-9.25520420074463
1662.770999,0.0003993160461426,-0.0304103152265347,-0.0152567392579411,-0.110743016004562,0.087026447057724,-8.99132785797119
1662.7910020000002,0.055499924506728,0.0227211822608222,-0.011702197065346,0.31038852930069,0.0028446584939956,-9.80009603500366
1662.811002,0.0723993830137854,0.0035011616713085,-0.0156193674771459,0.673389363288879,-0.53546798825264,-8.7751501083374
1662.83101,-0.0205767736216089,-0.0133170482929749,-0.0111967298997243,0.48811719417572,0.208692392706871,-11.4273275375366
1662.851002,0.111419058267091,-0.0164368641605038,-0.0112735673080608,0.422314935922623,-0.429132461547852,-8.54328775405884
1662.871001,0.0040096041206134,-0.0173996762934613,-0.0129920120735232,0.454486498236656,0.130725246667862,-9.12827091217041
1662.893345,0.0716547776736451,-0.0020309906405628,-0.008513474772281,-0.226860046386719,0.0395820140838623,-10.1109375
1662.911002,0.0934468633926045,0.005827221576331,-0.0138222916346938,0.847499465942383,-0.535311299562454,-9.50384645462036
1662.930998,0.0043639231585378,0.0111284958040264,-0.010859756918361,0.352371203899384,0.114217326045036,-10.2667503356934
1662.950998,0.0669297489435184,-0.0335127337272635,-0.0092158823825221,0.752341270446777,-0.0802407175302506,-9.1615517616272
1662.970999,0.0228769641706301,-0.0102297468420713,-0.0127484310655514,-0.304717910289764,-0.0633815139532089,-8.9378155708313
1662.991037,0.091578564795784,0.021013797189519,-0.009162005388808,0.39535226225853,0.184756022691727,-9.87100028991699
1663.010998,0.06518711237688,0.0021469245571816,-0.0118768185325112,0.705682551860809,-0.811447417736053,-9.48110046386719
1663.0310000000002,0.0149226589430827,-0.0165775009093407,-0.0097710357914069,0.55993766784668,0.357711669802666,-10.9269388198853
1663.0509980000002,0.086225122081051,-0.0173278732066786,-0.0074079775644422,0.310662716627121,-0.352391337230802,-8.72892456054688
1663.071002,0.010763653743309,-0.0084330602354226,-0.0124164451790169,-0.147758960723877,0.0949705898761749,-8.68873796463013
1663.0910270000002,0.0933659731263852,0.0201201625623161,-0.0085135172201113,0.571718072891235,0.269830644130707,-10.147877407074
1663.111028,0.0740029294180629,0.0011267079847398,-0.0104187786152628,0.631441760063171,-0.783941538259387,-8.88739757537842
1663.130996,-0.0058198253267071,-0.0171635829111331,-0.0095077187468393,0.518917274475098,0.438014605641365,-11.0663113594055
1663.150627,0.0925780549907549,-0.013376844192028,-0.0074094484875496,0.177485823631287,-0.246649737656116,-8.24592609405518
1663.1716350000002,0.0214643342291287,-0.0111198129516401,-0.0118255787193718,0.323437929153442,0.169305048137903,-9.08362550735474
1663.19101,0.0615896297283201,0.0099985089352275,-0.0068660810760623,0.0126343131065369,0.0640711098909378,-10.0435555458069
1663.211012,0.053978267224263,0.0104117112956367,-0.0131136956959732,0.713807678222656,-0.557675682753325,-9.50622091293335
1663.231015,-0.0217810394108841,-0.0011306440186182,-0.010774012123559,0.540493309497833,0.500981932878494,-9.82069892883301
1663.251015,0.0470893785990306,-0.0367623806336734,-0.0078320762488666,0.324329955875874,-0.158409838378429,-9.02432498931885
1663.271018,-0.0083912757393684,0.0092615864304461,-0.0139301392470332,-0.0484228014945984,-0.0740636169910431,-8.99369220733643
1663.291022,0.0514224685946035,0.0149458135317468,-0.0094259378603362,0.438759136199951,0.246113899350166,-9.76752243041992
1663.31102,0.0086203144964721,-0.0078142444908855,-0.0127010426569459,0.782192105054855,-0.560991650819778,-9.67099323272705
1663.331097,-0.0278050222787619,-0.0092098945900803,-0.0113040538753921,0.329737102985382,0.522855567932129,-9.74547910690308
1663.35103,0.0052266358803266,-0.0292857041557357,-0.007894144475411,0.342592597007751,-0.241021111607552,-9.16074113845825
1663.371029,-0.0061884837713887,0.0019899670688424,-0.0149922777642375,-0.101409697532654,0.0744181573390961,-8.78037004470825
1663.391034,-0.0134103141508887,0.0137473630619366,-0.0101926595409547,0.564359998703003,0.140485370159149,-9.8325138092041
1663.411033,-0.0057275428077738,0.0008947873617292,-0.0134952330698145,0.649393980205059,-0.575579772889614,-9.60580587387085
1663.431034,-0.0581279796633516,-0.0142127330808444,-0.0118386662036435,0.608545504882932,0.604470642656088,-9.70339975357056
1663.451037,-0.0146679172775521,-0.0181562938813375,-0.0080465745897246,0.0110140323638916,-0.420570027828217,-9.29548349380493
1663.470631,-0.0256922126389002,0.0049695137037788,-0.0172386014395572,0.307833981513977,0.0706420540809631,-8.71395807266235
1663.491705,-0.0458920318319903,0.0097081725224747,-0.0106503943950889,0.349337755143642,0.117534905672073,-10.1890030860901
1663.511039,-0.0175266882504607,0.0042810185955559,-0.0150348930778115,0.770594546198845,-0.603212915733457,-9.36094398498535
1663.531034,-0.0807491108641761,-0.0111577335263028,-0.0136507591977853,0.501838409900665,0.405380219221115,-9.47677259445191
1663.551032,-0.0330345086884653,-0.026936073025276,-0.0092621884824195,-0.0565984010696411,-0.269217878580093,-9.21054344177246
1663.5710330000002,-0.0440460773942926,0.0152546422256375,-0.0166220026879401,0.34912223815918,-0.133907622098923,-8.66851959228516
1663.591036,-0.046650689519702,0.006331270164758,-0.0111200309757697,0.362349116802216,0.0166554272174835,-10.0998610496521
1663.611034,-0.0362828564086764,-0.0008708890409164,-0.0140145474900052,0.822596587240696,-0.606806863844395,-9.53426370620728
1663.631033,-0.0753934096703899,-0.0125044934307055,-0.0118811569996364,0.295503884553909,0.341817426681519,-8.98838043212891
1663.651033,-0.0462116410023846,-0.0244952538352642,-0.0083806076778578,0.186958754062653,-0.422079530358315,-9.54107217788696
1663.671033,-0.0241761816469383,0.007565415516651,-0.0138833994661312,0.0036310493946075,-0.367414601147175,-8.68249320983887
1663.691035,-0.0558342901867057,0.0155053840893745,-0.0095192618343454,0.487701418995857,-0.0928561836481094,-9.96747093200684
1663.711035,-0.027895369193647,0.0005140732006029,-0.0100441272885425,0.647629380226135,-0.650228375196457,-9.63643388748169
1663.73104,-0.061354751694397,-0.0252191936067808,-0.0084091383604286,0.317432862520218,0.162108111381531,-9.22094116210938
1663.753192,-0.0191558676995699,-0.0009678890650903,-0.0039818053783054,0.213236355781555,-0.368929705023766,-9.47064542770386
1663.771038,0.008935624969615,0.0004352159324559,-0.0077023246091774,0.255481016635895,-0.401777215301991,-8.65400123596191
1663.791038,-0.061330262210981,0.0186926202201318,-0.0031759907254911,0.398481345921755,-0.24461886882782,-10.3530807495117
1663.8110370000002,0.0100569247249697,0.0019836556005979,-0.003359789536744,0.770329874753952,-0.545184677839279,-9.60512132644653
1663.831046,-0.0390949670812492,-0.0148561239442251,-0.0013881591150091,0.467571717500687,0.1444983959198,-9.48140888214111
1663.851038,-0.0038767488328715,-0.0086601153812989,0.0030875296098411,-0.18600789308548,-0.375507055222988,-9.62839269638062
1663.871038,0.0142767845931189,0.0174584258660729,-0.002514389106701,0.526358640193939,-0.35959404706955,-8.73111629486084
1663.891041,-0.0383607368252977,0.0139784572764388,0.0034040291400699,0.437936496734619,-0.0756728261709213,-10.8892360687256
1663.911041,0.0313269080786497,-0.0049479707419052,0.0031121290966096,0.878639280796051,-0.534546956419945,-9.80715599060059
1663.931037,-0.060364003178084,-0.0263733188951692,0.0031063132556087,-0.015572190284729,-0.019806843996048,-9.1033881187439
1663.9510340000002,0.0444131062210503,0.018586812234177,0.0065037247656151,0.151827239990234,0.113709003478289,-9.80336599349976
1663.97106,0.0391925328792229,-0.0002550849174175,0.0042693472028618,0.322478550672531,-0.492158780992031,-8.90659656524658
1663.99104,-0.043662359660793,0.0216591618696121,0.0068889659012929,0.512239074707031,-0.12204699665308,-10.4185294151306
1664.010636,0.0174208305521637,-0.006147704737047,0.0077006763343299,0.903117334842682,-0.401068198680878,-10.0027698516846
1664.031635,-0.0348025245894459,-0.0265160804323674,0.0068034822886271,-0.0590555667877197,0.0038490936160087,-8.63557586669922
1664.0510020000002,0.0174168021953639,0.0190928232764954,0.0090568283945115,0.219172346591949,0.110642494261265,-9.81690950393677
1664.071003,0.0481727562705979,0.00819618370616,0.0058658615596037,0.406525957584381,-0.701756340265274,-8.20834932327271
1664.091006,-0.0368975259071449,0.0063476236315524,0.0083158735677793,0.569870901107788,0.0939625024795532,-11.3232569694519
1664.111002,0.0632134426709028,-0.0034884675063541,0.0099254262290829,0.469049048423767,-0.538806772232056,-8.78278646469116
1664.130994,-0.0558853519823149,-0.0312231991371647,0.0071362843157042,0.0955377459526062,-0.0206301920115948,-9.14309024810791
1664.1510050000002,0.073768930878328,0.0195727907328891,0.0112113688825248,0.171358370780945,0.148274102807045,-9.39195880889893
1664.171002,0.0817835624474564,-0.0048504011563245,0.0092639517910351,0.423953819274902,-0.78391682356596,-8.85851879119873
1664.191007,-0.0417690341250374,0.0331895175713514,0.0097580832998169,0.41910457611084,-0.152614766359329,-10.1365345954895
1664.211005,0.0486143537882638,-0.0083543257685972,0.0115599991714186,0.987511217594147,-0.0748181700706482,-9.51327829360962
1664.231002,0.0337138608684108,-0.0092964958575215,0.0111278507272044,-0.0310303926467896,-0.129293596744537,-8.62906465530396
1664.251003,0.0367038151964653,0.0018701483694028,0.0156992630230695,-0.0102411568164825,0.0162841796875,-9.28904066085815
1664.2710040000002,0.0683731244299816,0.0244177448368565,0.0110690893183209,0.432047200202942,-0.724903303384781,-9.67358694076538
1664.291008,0.009371556878162,0.0149510096551383,0.0138149542113415,0.542711573839188,0.219952017068863,-10.1174104690552
1664.311004,0.0627908745052151,-0.0208353734383485,0.0169981455624717,0.894582605361939,-0.328675059974194,-9.47127504348755
1664.3306320000002,0.0253668456548285,-0.0046136452978546,0.0125595015577497,-0.437377512454987,-0.1694520175457,-8.67903509140015
1664.3516490000002,0.0899448641866919,0.0296481459536571,0.0147788117830201,0.361795955896378,0.302349457144737,-9.78137836456299
1664.3710110000002,0.0887627070554146,0.0167434984687541,0.013986245188302,0.60681380033493,-0.988103994727135,-9.24521856307984
1664.391084,0.0484234929559659,0.0009642182228852,0.0138918593231537,0.692235642671585,0.18145248144865,-11.2196384429932
1664.411018,0.115582419111379,-0.0022129937987376,0.0159569945308979,0.344264194369316,-0.390214428305626,-9.13441171646118
1664.43102,0.048472525896198,-0.0003483481121701,0.0118503915697377,-0.0393465161323547,0.124675813317299,-8.96964807510376
1664.451022,0.116097660552025,0.0346806565578786,0.0146609343505451,0.255447927117348,0.321355685591698,-9.97930250167847
1664.4710280000002,0.106954799978028,0.0102565926905095,0.0110618212555223,0.651983165740967,-0.779823583364487,-9.48767127990723
1664.491099,0.0257836985582363,-0.0017719069570254,0.0110610962838646,0.622112363576889,0.460035016387701,-10.9712320327759
1664.511027,0.117962183614815,-0.0025255579608783,0.0143255540579371,0.215742093324661,-0.264178621768951,-8.88670711517334
1664.531035,0.0238039244873338,0.0004467482045685,0.0086778545796332,0.0683577656745911,0.0053546875715255,-9.26503028869629
1664.551038,0.120739396874128,0.0330041071055668,0.0115883314188899,0.16919657215476,0.146995291113853,-9.77264909744263
1664.571038,0.0771283425994215,0.0051812731313047,0.0093729834448403,0.926935291290283,-0.682964110374451,-9.897523021698
1664.591043,0.0320936050214597,-0.0066073379516599,0.0097046688676111,0.361497581005096,0.358795160055161,-10.5867527961731
1664.613152,0.113647266054721,-0.0029188956835968,0.0124921915198039,0.378715944290161,-0.141498326510191,-9.02714252471924
1664.631044,0.0361617511360651,0.0152969109731684,0.0070912279485821,-0.129122936725616,-0.0581434547901154,-8.74267101287842
1664.651043,0.106160823949636,0.0262676872696666,0.0095722830655966,0.461913776397705,0.286018609255552,-10.2113745689392
1664.671125,0.0725234918291792,0.0092481840421588,0.0075119541832176,0.795389457046986,-0.593899858742952,-9.92479009628296
1664.691131,0.0303093473289108,-0.0129661191633406,0.0082571814602681,0.43138462305069,0.584563672542572,-10.1716449737549
1664.711082,0.0841099916441642,0.0068867700805045,0.0101653795380608,0.212380880117416,-0.460943084955215,-9.55076932907105
1664.731084,0.0567305156906174,0.0177588157715052,0.003408923246187,0.0297186970710754,0.0704047746956348,-8.42804946899414
1664.751088,0.0525996185093898,0.0184541352006908,0.0074610487743517,0.63309862613678,0.289047813415527,-10.6132469177246
1664.771087,0.0897515470912364,0.0085224202123608,0.0051143500580777,0.497051024436951,-0.660202491283417,-9.42084970474243
1664.79114,-0.0124847344317421,-0.0190868902268114,0.0052104700184429,0.512592178583145,0.529284969717264,-10.0665247917175
1664.811136,0.09400785178766,0.0159620666101592,0.0079739303582749,-0.0457628950476646,-0.282645288109779,-9.08708915710449
1664.831183,0.0342771324803278,0.0105776671913727,0.0014381326541833,0.334375405311585,-0.0227769643068314,-8.6570348739624
1664.850685,0.0409799396711088,0.0220149166473256,0.0068080551990104,0.449493145942688,0.165483039617538,-10.5800013542175
1664.871768,0.0879713715513433,0.0062016726037391,0.0034816334500576,0.737265360355377,-0.597456101328135,-9.6700813293457
1664.891154,-0.0084185948315504,0.0003510283175933,0.0040272904256074,0.379552751779556,0.505564624071121,-9.46234426498413
1664.911166,0.0583940010593371,-0.0155977132543159,0.0072326119064726,0.100732278823853,-0.174916863441467,-9.55813283920288
1664.93116,0.0474697646291075,0.0190867110256539,0.0002307943869379,0.187212884426117,-0.180884513258934,-8.89371089935303
1664.9511650000002,0.0247982302028458,0.0282770989660891,0.0046537551685608,0.441849318519235,0.153668594360352,-10.2129424095154
1664.971166,0.0443781752519599,0.0143831532632766,0.002017739638194,0.868238360434771,-0.581128086894751,-9.94255504608154
1664.991172,0.0160841589390802,-0.0037016420785557,0.0025596132039687,0.116391444206238,0.399089995026588,-9.118372631073
1665.011168,0.0288205415083127,-0.0005690472391838,0.0061342961791029,0.440367484092712,-0.0245488584041595,-9.75510921478272
1665.031166,0.0505640937481262,0.0217181093446909,0.0007494471595259,0.0216404587030411,-0.220816458016634,-9.02439041137695
1665.0511820000002,0.0054053441754751,0.0218718312697265,0.0039196915081373,0.575503677129746,0.0554110273718834,-10.7698707580566
1665.0711700000002,0.0510236943242192,0.0127562373236362,0.0023953039306256,0.653546142578125,-0.532529485225677,-9.73482131958008
1665.0907080000002,-0.0113038518302297,-0.0113352548800989,0.0021869412542346,0.4669135004282,0.40986285507679,-9.86773252487183
1665.111794,0.0495511693844777,0.0204828532770369,0.0060788881784058,-0.0083551526069641,-0.0942371129989624,-9.93767518997192
1665.131002,0.0509801753408716,0.0294343838289152,0.0001560563781593,0.512401956319809,-0.296140164136887,-8.87652969360352
1665.151209,-0.0160578701056004,0.0206737652420297,0.0039716261696223,0.594034910202026,0.181482797861099,-11.848760509491
1665.171206,0.0802242344614275,0.0111885068865037,0.0021094341440821,0.700291991233826,-0.509189516305924,-9.820569896698
1665.191208,-0.0632261213303409,-0.0217417941983388,0.0017954616264771,0.353428196907043,0.369142225384712,-9.94177179336548
1665.211132,0.0873228180612207,0.03591941426823,0.0052055164794452,-0.143814271688461,0.0079434633255004,-10.2974610328674
1665.231131,0.0247410515402491,0.025175526817987,0.0008113825387129,0.766866701841354,-0.50095386505127,-8.89038934707642
1665.251119,0.0047705331889146,0.0131435112798422,0.004170700506823,0.582482804358006,0.2211356818676,-11.8654527664185
1665.271125,0.0909536900044479,0.0101063468418239,0.0026119152975497,0.753586035966873,-0.544209364056587,-9.85143833160401
1665.291189,-0.04962160064734,-0.0200550818861945,0.0030835177942314,0.0164730191230774,0.145041738450527,-9.43910884857178
