time,gyro_x,gyro_y,gyro_z,accel_x,accel_y,accel_z
212.045654,0.0818791166710101,0.0280823875577964,-0.003376947809001,1.88944544792175,-0.0667357802391052,-8.22645540237427
212.0654,-0.0927331702817259,-0.0715475823878442,-0.000407786822126,0.0295704364776611,-0.37077149450779,-10.6216617584229
212.085649,0.115227597031897,0.0849859893976039,-0.0041792399724839,1.43209933936596,-0.0989180058240891,-9.13689079284668
212.105792,-0.126521149411715,-0.0658969328962979,-0.0003343993467737,1.06507419347763,-0.19021814763546,-10.2284531593323
212.125029,0.128026607683337,0.0235906814275035,0.001023696747101,-0.0967617958784103,-0.27840588092804,-9.91528329849243
212.14625,-0.0770740163600051,0.0204178901350959,-0.0001473989293718,1.62213879823685,-0.414628253877163,-8.95271968841553
212.165634,0.0225692878561777,-0.0525342240536984,0.0045606874868281,0.552028247714043,0.0835546419024467,-10.9639350891113
212.185634,0.0139906145480969,0.0240329820789054,0.0040215697778238,0.51105043888092,-0.617534965276718,-8.07724666595459
212.205774,-0.0342019210206708,0.0114910230598314,0.0047774361951941,1.4974790096283,0.346453327685595,-11.4045516967773
212.225639,0.0388028570031429,-0.0298695074384499,0.0045785118693322,0.350524318218231,-0.572646522521973,-7.64160051345825
212.245632,-0.0710433908172519,0.0052237317326379,0.0044892895038509,0.514728932827711,-0.0378639757633209,-11.9240545272827
212.265648,0.0976734493406591,0.0318109855621197,0.0055608641707775,2.12899238169193,-0.173636239767075,-8.12792778015137
212.285631,-0.124948368318974,-0.0755207376558507,0.0044976713820342,-0.180387675762177,-0.208353734016418,-10.8707125663757
212.305745,0.147417661455808,0.101762968418682,0.001298565475267,1.64185801446438,-0.0861417710781098,-8.65807495117188
212.325654,-0.142960000231287,-0.0723697194224437,-0.0005310084497549,1.27759359478951,0.0857510268688202,-9.27051134109497
212.345708,0.114062921127406,0.0204803477749879,0.001158692047609,0.115210059285164,-0.498025139421225,-10.9477093696594
212.365658,-0.0701404257752238,0.0212084697748397,-0.0014094960813645,1.65832844227552,-0.140748474001884,-9.28695430755615
212.38566000000003,0.0518117448781421,-0.0278673565847001,-0.0007502686966686,0.495241671800613,0.0287637710571289,-9.97137842178345
212.40576600000003,-0.0209015722870824,0.0313668157266495,-0.0057240269800442,0.55798591375351,-0.44733999632299,-8.35684843063354
212.426269,-0.0374138851653147,-0.0085073076899097,-0.0024384925636228,1.36275901198387,0.167665562033653,-11.6535305023193
212.446235,0.0657085477386437,-0.0041292416067293,-0.0015139646377957,0.514826226234436,-0.699457255005836,-7.92139339447022
212.465596,-0.0678748714721211,0.0169718444192692,-0.0038443882581911,0.832531660795212,0.0034497678279876,-11.564400100708
212.485594,0.0716821447027286,0.007020240617663,-0.0018686044164973,1.12150502204895,-0.287745415046811,-7.86037445068359
212.505748,-0.0744263398528634,-0.0400194170874184,-0.0044091766291788,0.140348541736603,-0.13630770072341,-10.5859788894653
212.525598,0.0820069015365687,0.0663676396535081,-0.0039164752971382,1.98474815487862,-0.0582733169198036,-9.56152381896973
212.545592,-0.0932462603615797,-0.078926927921637,-0.0001144473844276,0.546989667415619,-0.350548451393843,-10.2908828735352
212.56566100000003,0.111618837967038,0.060636450486118,-0.0009235105760588,0.659797942638397,-0.612770849466324,-9.57223100662231
212.585623,-0.0927017665216803,-0.0154101073968077,-0.0028631614012677,1.84137239456177,0.317282629013062,-8.79465398788452
212.60578400000003,0.0304534778493242,-0.0364652766178937,0.0051001273199738,0.174626016616821,-0.391356936842203,-10.561612701416
212.62561600000004,-0.0097845446469604,0.0478137019545308,0.0009054929035347,1.22380088567734,-0.355280786752701,-9.37218589782715
212.645614,0.0003875870108041,-0.0229560290469873,0.0046570437361699,1.3020604968071,-0.0330379605293274,-10.3462196350098
212.665617,0.0212378124848484,0.0029646729388628,0.0019833576871808,0.0765520870685577,-0.205266843736172,-8.18268032073975
212.68562100000003,-0.0587716283207356,0.0187444941023603,0.0006308136703839,1.42058773040771,0.102987617254257,-11.5397914886475
212.705763,0.070363840024663,-0.0249471323979382,0.0027260940133992,0.911634653806686,-0.151448900997639,-8.88567790985107
212.726433,-0.0525555018830801,-0.0070532868971688,-0.001066117871838,0.598456427454948,-0.437177431583405,-10.4990663528442
212.746236,0.0459058570710935,0.0255495280966511,-3.74960371781252e-05,1.62960833348334,0.142097914218903,-9.18748760223389
212.7656,-0.0293669789824311,-0.0579385872389533,-0.0004169343665496,0.594785976409912,-0.0214356124401093,-8.76567916870117
212.785598,0.0122392288459492,0.0462316708152505,-0.0019636679415049,1.01040540933609,-0.118068636208773,-10.6533521652222
212.805784,-0.0221712638574824,-0.0360707320097045,-0.0042030497505848,1.41455099582672,0.0634608268737793,-9.26618270874024
212.8256,0.0266258778337872,-0.0037842351108595,-0.0010407816067305,0.184016495943069,-0.687465310096741,-10.5421413421631
212.845618,0.0108606332759371,0.047179398980763,-0.0061403018813037,1.72792056798935,-0.0536034166812897,-8.61227607727051
212.86562300000003,-0.0613164781621043,-0.0680677013866227,-0.0013117620899662,0.330457419157028,-0.179510387778282,-10.4866477966309
212.88561600000003,0.076784211159138,0.047668830720218,-0.002189389520511,0.610703063011169,-0.290366590023041,-9.6558910369873
212.905799,-0.0508382090236051,-0.0136568392539671,-0.0020374654512099,1.62740699648857,-0.359839341044426,-10.3175235748291
212.925617,0.0660439472060122,-0.02066913063138,-0.0024411855596174,-0.143745279312134,-0.162256020307541,-8.92399110794067
212.945033,-0.0471721476071078,0.0264317522025939,-0.0033420403349104,1.18974010944366,-0.309358489513397,-9.39934797286987
212.965509,0.0332520701381445,-0.0111524441330882,0.0018382003960665,1.26398333311081,0.272007591277361,-10.054426574707
212.985908,-0.0138305494983376,-0.0063128912751055,0.0002031094281919,0.258791503310204,-0.745417207479477,-8.81547985076904
213.005836,-0.0198793719554596,0.0377934341638291,0.0001922398763442,1.00318212509155,0.227397631853819,-11.304545211792
213.025597,0.0453910566499411,-0.0236216393151843,0.003411237903146,0.973129236698151,-0.339916175603867,-7.72666425704956
213.045607,-0.084646680409606,-0.001111389008115,0.003675690835896,0.208290886878967,-0.417851807177067,-11.9019031524658
213.065601,0.0815401793419519,0.0404853451865492,0.0032362661119213,1.79408292770386,-0.176151448488235,-8.53042373657227
213.085597,-0.0786789944797392,-0.0666491118821881,0.0042374605821015,0.12555159330368,-0.433662788942456,-10.2888836860657
213.10578200000003,0.0899466483863276,0.088830501433609,0.0034040040249804,1.63201245218515,0.0405904605984688,-9.37845840454102
213.12559600000003,-0.10077372926377,-0.0684938204338991,0.0075350360083997,0.935194265842438,-0.476999205350876,-9.7935378074646
213.145628,0.110653643488441,0.0320099121035837,0.0048213343202245,0.626908004283905,-0.0743931770324707,-10.0493350982666
213.165619,-0.0769754490950606,0.0169674909200786,0.0015372581029182,1.97374556064606,-0.0380290061235428,-9.04971599578857
213.1854,0.0399876962336469,-0.0519856805517098,0.0045229623512084,0.436531773209572,-0.0270633935928345,-10.3631812095642
213.205872,-0.001608462244749,0.0445458133186673,0.0037138008278985,1.2606480717659,-0.768138249218464,-8.49638509750366
213.225615,-0.0336806160946241,-0.028630371677572,0.0059658254380607,1.50805068016052,0.398113250732422,-11.0462520599365
213.246261,0.056951204721661,-0.0016034768069983,0.0075014493438974,0.633419233560562,-0.707739871740341,-8.16429491043091
213.266028,-0.0948278197070596,0.0067412909352636,0.0052427751105984,1.34272663593292,0.265305726230145,-11.591089630127
213.28560300000004,0.106060510686623,-0.0085489884114495,0.0060904583968665,1.14620141983032,-0.461450091004372,-7.89226884841919
213.30579900000004,-0.117433899016736,-0.0201161676429847,0.0045937420443266,0.595462322235107,-0.0177142947912216,-11.6725702285767
213.325618,0.102040582969604,0.0122935133033256,0.0057734080916137,1.79352804422379,-0.0728675454854965,-8.92168455123901
213.345616,-0.0761709372163152,-0.0625242223542967,0.0055488131814439,0.0792574644088745,-0.739835888147354,-10.4776779174805
213.365616,0.0856636992948145,0.060496049575,0.0043026278331548,2.62107510566711,0.411268675327301,-9.04530410766602
213.385618,-0.0889417519741377,-0.0960078108005678,0.005986996038216,0.20598030090332,-0.403827145695686,-9.82178716659546
213.40578500000004,0.0925051123077076,0.0798591659580321,0.0065514922900117,1.67309966683388,0.0497580885887146,-9.65568428039551
213.42566,-0.0591866819924424,-0.0576118062346516,0.0093611317857242,1.53971080780029,-0.573207664489746,-9.13410043716431
213.445641,0.0724953017945155,0.0506524869087798,0.0069189229286119,1.24924881756306,0.017130184173584,-10.7392332077026
213.46565500000003,-0.045714961440156,-0.0181617451947526,0.0080445552625464,1.24254680871964,0.117351889610291,-8.40704746246338
213.485655,0.0409486339153951,0.0255484888719728,0.0071899323959186,1.14254103899002,0.149737739562988,-10.7886274337769
213.505848,-0.0180535881822641,0.011098864170619,0.0053765390097575,1.91264883875847,-0.187934410572052,-8.05214757919312
213.525668,0.0174495088922272,-0.0008187613298357,0.0055009574916166,0.665988826751709,-0.424264073371887,-11.2938228607178
213.54567100000003,0.0065870534222214,0.028150130803296,0.0049885167792334,1.80089490413666,0.0445355832576752,-7.70919342041016
213.56566000000004,-0.0233402117092496,-0.0164748397146498,0.0056427086550494,1.09641469717026,-0.121669560670853,-11.0691226959229
213.586296,0.0309134320636328,0.0314766442574646,0.0040658002838651,2.03953543901444,-0.292330875992775,-8.0248538017273
213.606494,-0.0365000193902599,-0.028550135247016,0.0043032935124877,1.00180617421865,-0.539294390380383,-11.4304542541504
213.625433,0.0304680156319995,0.0130105129951397,0.0031219605852131,1.50570964813232,0.0627296924591065,-8.42559728622437
213.645664,-0.0132974611566804,-0.0146491990179399,-0.0003221933207716,1.3194543749094,-0.11282080039382,-11.2347818374634
213.665663,0.0260591583010521,-0.0101078330041315,-0.0027208153172153,2.22329755723476,-0.0602681219577789,-8.65841054916382
213.685676,-0.023811015050439,-0.0173577062934347,-0.0053105220253423,1.14253494739532,-0.737735790014267,-11.1589191436768
213.705855,0.0233345980021832,-0.0162970584363214,-0.0060583797067018,1.46107353270054,-0.0040625989437103,-8.50825233459473
213.725857,-0.0106073535083565,-0.0128618442113304,-0.0071418374802395,1.76805791854858,-0.100706157833338,-10.9167272567749
213.745699,0.024635621486458,-0.0258052180842914,-0.0081345413486808,2.00013838112354,-0.393762403726578,-8.97744417190552
213.765706,0.0059757862009471,0.0053791528728764,-0.0132052106733569,1.74179879426956,-0.341906279325485,-10.5610479354858
213.78571,0.0192361458529846,-0.0346560787758738,-0.0121232617877689,1.14610860347748,0.0572520703077316,-9.06723661422729
213.805881,-0.0017868983056423,0.0110358818287909,-0.0145758334489378,2.16672356128693,0.212012720108032,-10.0026554107666
213.82571,0.0240869250598357,-0.0101297523594535,-0.0159615808495579,1.65067580938339,-0.550457954406738,-10.0318629264832
213.846738,0.0473171792229058,0.0138754736616996,-0.0198348446105128,2.0211564540863,-0.374659766256809,-9.4765697479248
213.866346,0.0015830969955705,-0.0067742869106136,-0.0202654228548884,1.42946035861969,0.410753607749939,-9.08706169128418
213.885692,-0.002012507591717,-0.0109560693439059,-0.0219676025705079,1.50210206508636,0.308290678262711,-9.7236270904541
213.90587,0.0115495760319656,0.0023166578807518,-0.0243716623241365,1.87374106645584,-0.559259009361267,-10.6285772323608
213.925702,0.0667761344918323,-0.0007585586181153,-0.0257124998315,1.91428171396256,-0.33908881098032,-9.07269172668457
213.945002,-0.0155299697720908,-0.0047116065456745,-0.0280640915220475,1.86974852085114,0.483255537599325,-8.51563081741333
213.965709,0.0116274248534403,-0.0047700471915879,-0.0310967124739149,1.61718180179596,0.559839934110642,-9.87353553771973
213.985705,-0.0071230935599596,-0.0386639761356609,-0.0283099432004326,1.41488261222839,-1.05680687427521,-10.3586745262146
214.00588,0.0571468301268747,0.0220767114559877,-0.03190502900392,2.58587379455566,-0.534001796320081,-9.70417938232422
214.025711,-0.001258059829217,-0.0388516456427216,-0.0320530354299503,1.76143546104431,-0.221133589744568,-9.44813041687012
214.045521,0.0372100105887195,0.0032950377295894,-0.028989216432444,2.33239078521729,0.576735711097717,-8.24978656768799
214.06579,-0.0223244602520428,-0.0430670091478776,-0.028829070725889,1.63126801252365,-0.922649455070496,-11.2641830444336
214.085741,0.0777915396884907,-0.0193075164423898,-0.0296510434730336,2.54032673835754,-0.911856216192245,-9.09037828445435
214.105913,-0.0100414641865322,-0.0145339516291374,-0.0295280077932373,2.16739153862,0.310219222307205,-10.0652325630188
214.12665100000004,0.0708694366790999,-0.0080444810491212,-0.0293789214257531,2.27066693305969,-0.19669391065836,-8.65222148895264
214.14639900000003,-0.0181829112897269,-0.0300166881055796,-0.0306945448331311,2.57001507282257,-0.423666474223137,-10.5229965209961
214.164622,0.0576431982471972,0.0052587625998637,-0.0323285237129769,2.34149985313416,-0.268139111995697,-9.77244644165039
214.18725,0.0138579143155178,-0.0185598922906762,-0.0317948782897822,1.89944827854633,0.162387549877167,-9.25301885604858
214.206753,-0.0138789215677223,-0.0023100350131379,-0.0329608202019217,2.29942650794983,-0.31359623670578,-10.3341535568237
214.226627,0.0678981529456205,0.0019382401931117,-0.0301020991780807,2.8103179693222,-0.93979896903038,-9.85184373855591
214.24663100000004,-0.0066871925440825,-0.0149164711176448,-0.0255307974329958,2.01048973798752,-0.507659668847919,-9.01402225494385
214.266634,0.0465335648741238,0.0206536653584338,-0.0271135224145386,2.35755120515823,0.509750700369477,-8.41024179458618
214.28666100000004,-0.062131337073074,-0.0452841931052527,-0.0245142207509079,1.48251301944256,-0.438357529044151,-10.0297523498535
214.306504,0.0637618446110787,0.0280183662871968,-0.0227413472439139,2.88584072589874,-0.787872588634491,-8.8823956489563
214.326653,-0.0476331533558176,-0.0196296597586112,-0.0208806033843989,1.99364173412323,-0.648593331873417,-9.7576714515686
214.346646,0.0601070352873412,0.012147148804942,-0.0161542476602318,2.44994606971741,-0.0426507603377104,-8.31495885848999
214.366397,-0.05751693756797,-0.0230415180007708,-0.013398554992238,2.24284156560898,-0.0603223502635956,-10.183655834198
214.38664900000003,0.0543078302259269,0.0197369362708285,-0.0119003729504422,2.83805847167969,-1.33659431934357,-8.94094076156616
214.406774,-0.0545016586483312,-0.0223300479193109,-0.0082136916829215,2.44718226194382,-0.524953439086676,-9.03381443023682
214.426665,-0.0135029629839451,0.0105856166683482,-0.0042987972974479,2.66038222312927,-0.0136438969522715,-9.89736022949219
214.446643,0.0415454525994847,0.0060415974117742,-0.0022579199724164,2.60390372276306,-0.922657197713852,-9.70594043731689
214.46457400000003,-0.0621612065563665,-0.005522614170473,-0.0049841370700981,2.50633738040924,-0.731305414438248,-8.77569789886475
214.489829,0.0225541790917429,0.0053814128906449,-0.0028939169478792,2.13880627155304,-0.364337769150734,-9.92817687988281
214.506755,-0.0638267991125412,-0.0350618413291782,-0.0015637241549799,1.88414518237114,-0.332116740942001,-9.20046539306641
214.526628,0.0093955204760146,0.0153895709915018,-0.0016244782890203,2.90544848442078,-0.343808382749558,-9.43547172546387
214.546628,-0.0782343090562623,-0.0203237131801478,-0.00193295006013,2.12494848966599,-0.671472334861755,-10.3177815437317
214.566379,0.0324210794537543,0.0126703588973237,-0.0024292044634697,2.5797295331955,-0.285937285423279,-8.93173198699951
214.586627,-0.0765793193733303,-0.0231183876629485,-0.0020477737168693,2.24115226268768,0.273161119222641,-10.234698677063
214.60650400000003,0.0146583723894788,0.0138150421548422,-0.0075365298642841,2.54438734054565,-0.304064691066742,-8.84547128677368
214.626646,-0.0979258983203106,-0.0190813717943366,-0.0123138845926377,2.44320206642151,-0.543939255177975,-10.5943803787231
214.64640100000005,0.0126975474058353,0.0092238708674114,-0.0069565744648129,2.91437973976135,-0.0344169020652771,-9.69318027496338
214.666649,0.0025592079494356,0.012967703803431,-0.0059345980976487,2.38401257991791,-0.394720279425383,-9.60284671783447
214.686649,-0.0409597429668082,0.0074074219402456,-0.0110633926389881,2.92127285003662,-0.216422402858734,-8.62806234359741
214.70684,-0.0197665969031021,0.0140145089037586,-0.0114781753784296,2.57506387233734,-0.426817385852337,-9.96649417877197
214.726533,-0.0207032659662691,-0.0049310016706061,-0.0070475961359719,2.28026583194733,-0.185419583320618,-9.34130954742432
214.744587,0.0256928127970701,0.0361076037723087,-0.010886888257679,2.59008786678314,-0.0563478797674179,-8.7135461807251
214.76721100000003,-0.0747452109133381,2.39535370214927e-05,-0.0146467554436357,2.66472039222717,0.106091544032097,-9.63573589324951
214.786388,0.0119701510878175,0.013819919882518,-0.0128147937282893,2.53821524381638,-0.517687409371138,-9.86675605773926
214.80676900000003,-0.0064479687045456,0.0001669583391992,-0.0092031766772026,2.10144807100296,0.0425998151302338,-9.20408153533936
214.826375,-0.0168879925994422,0.0122444564538242,-0.0104620462257846,2.2564950466156,0.427022758126259,-9.0402003288269
214.846634,-0.054494816809686,-0.018504402900814,-0.0123031295641189,2.39113438129425,-0.0671174250543118,-10.4021645545959
214.86638,0.023105674559959,0.029230660579057,-0.0130456553600474,2.72213616371155,-0.392592835426331,-9.39521913528443
214.88662800000003,-0.0347368349371318,-0.007399377713913,-0.0067855984214587,1.88738533258438,-0.0979718804359436,-10.1608903884888
214.90678000000003,0.0004579847178353,0.020296735830728,-0.0109709444899228,2.87804179191589,0.499177610129118,-9.3117618560791
214.926415,-0.0528423695579715,0.0079202723947734,-0.0156975749339622,2.33587288856506,-0.33900730907917,-10.6360416412354
214.945044,-0.0004284047497551,0.0117230384913803,-0.0094386846375195,2.3979926109314,-0.499070319533348,-9.60210237503052
214.966659,-0.0319442094609612,0.0178601915470609,-0.0105720641369511,2.56290881633759,-0.215888470411301,-10.1140989303589
214.986654,-0.0232053659156517,0.0272990088691892,-0.0127658248222886,2.93224349021912,-0.28789125084877,-10.7153482437134
215.006804,0.0280895435310995,0.0239319669545563,-0.0115142378951197,2.42155270576477,-0.205210454016924,-9.53478889465332
215.026658,-0.0535450936405342,0.0208096288366536,-0.0111442747381797,2.15517228841782,-0.331893056631088,-9.47317905426025
215.04665900000003,0.0396409140602574,0.0246493855320351,-0.0135457146513721,2.38856196403503,-0.0556755542755127,-9.92163066864014
215.066396,-0.0563200563510966,-0.00937936893602,-0.0125688034471596,2.5283980846405,-0.252580064535141,-9.50105171203613
215.084583,0.0564240520854513,0.0510193422157906,-0.0138574287916418,3.15621581077576,-0.168592166900635,-9.11421947479248
215.107442,-0.0162391894231625,0.0116319454770921,-0.0106045182477706,2.38552651405335,-0.455215260386467,-9.34875659942627
215.1266,0.0267038583892699,0.0188692033126494,-0.0064663171749792,3.4957136631012,0.373026618361473,-8.08136310577393
215.146597,-0.0317635727707939,-0.0084971744207571,-0.0117582360133154,1.95379869937897,0.792506048083305,-10.7361263275146
215.16638,0.107139986146459,0.018095256594081,-0.0157919781984302,2.57979726791382,-0.607886862754822,-7.81204347610474
215.186388,-0.0666680597192409,-0.0028306130441326,-0.0096506745764418,2.0552962064743,-0.202304601669312,-8.89866123199463
215.206789,0.0038229771819778,0.0119850993524045,-0.0072116359168213,3.20390658378601,0.214538111537695,-10.9444103240967
215.226601,0.0812258800415228,0.0098023307761131,-0.01038047809627,2.50878868103027,0.122389906644821,-9.5501317024231
215.246624,-0.0197186346720318,-0.0170647604561651,-0.0130557338272608,2.05678105354309,-0.299418145418167,-8.91713075637818
215.266415,-0.0171466958651987,0.0141440197049041,-0.0065913023331538,2.98709695339203,-0.0178295165300369,-9.82461395263672
215.286614,-0.0061150748538899,-0.0082839962976738,-0.0074659389892944,2.35469969511032,-0.123302786052227,-10.592472076416
215.306797,0.0541729866812207,0.0385083217912741,-0.0133963977133101,3.21974940299988,-0.081872820854187,-9.35191373825073
215.326618,-0.0233051640345176,0.0083605599330399,-0.0137881828130539,1.935111784935,0.144751933217049,-10.2038060188293
215.34502000000003,0.0729665740888001,0.0310319948162544,-0.0106136172634791,2.81251721382141,-0.203366443514824,-8.32876081466675
215.367043,-0.0180957369099973,0.0099567229892299,-0.0151582873966483,2.29130628108978,0.39077975153923,-10.6273551940918
215.386384,0.0641930985882207,0.0440238391698039,-0.0159505054131571,2.61534063816071,-0.0939461901783943,-8.90707569122315
215.40653000000003,0.006565059498386,0.0206515066591532,-0.0142809601931418,2.26814861297607,-0.428958766162396,-9.70838165283203
215.426605,0.0613742749148229,0.0463524093113843,-0.0235697359606386,2.62841625213623,-0.174454890936613,-8.86004962921143
215.44660300000004,-0.001274274101453,0.0187485515763891,-0.021978450750487,2.80804662704468,0.29326177239418,-9.72356195449829
215.466386,0.0568332716587078,0.0373680018570519,-0.0149580008675357,2.27884652614594,0.0544926710426807,-9.73280601501465
215.486595,0.0719038057635647,0.0523395308732645,-0.0120342836785549,2.56122114658356,-1.16300308704376,-9.45553436279297
215.50678600000003,-0.0156295669110588,-0.0016515781956386,-0.0100971794124635,2.58682222366333,-0.195489346981049,-9.55344409942627
215.526379,0.0654361461186194,0.0444961789774568,-0.0099738380017623,2.76444764137268,0.0906232081353664,-9.80372018814087
215.546618,-0.0216379346994745,0.0046935445130224,-0.0073761505689019,2.13533772826195,-0.552552535384894,-10.0614560127258
215.566726,0.0572667708582783,0.0305726767423825,-0.0015462291981175,2.8674352645874,-0.318731504678726,-9.03353099822998
215.586179,-0.0248287546462473,-0.0111098236115546,-0.0013618310442878,2.46134855747223,-0.0381684541702271,-10.1412467956543
215.606781,0.0574134364714206,0.0208348673193593,-0.0026008663965911,2.38740140199661,-0.290876752138138,-8.10147743225098
215.62661000000003,-0.0625772421060139,-0.01415947364462,-0.000223273775084,2.11073391437531,-0.518622949719429,-10.2066442489624
215.64702800000003,0.0718841571970187,0.034346280454584,0.0005715304539027,3.11084532737732,-0.641029593348503,-9.24966192245483
215.66723,-0.0132138286629729,-0.0185164134618812,0.0001874178575157,2.72902417182922,-0.381982529908419,-10.0259244918823
215.686596,0.0206528723282123,0.0267051059323348,0.00067134860196,2.64221630096436,-0.0615121126174927,-8.46099348068237
215.706753,-0.0033301348799382,0.0046164734566773,0.0017886429129483,1.9415393859148,-0.533656132221222,-9.88004856109619
215.726488,-0.0178853714994018,-0.0204966380360899,0.0026202351758609,2.27283601760864,-0.666101326048374,-9.66017055511475
215.746597,0.0104793528971508,0.0021816072012863,0.0013153434425576,3.13188557624817,-0.132551464438438,-11.3254613876343
215.766389,0.0098352597581638,-0.0030168704247668,0.0085977919055496,2.84089782238007,-0.453565156459808,-9.49991493225098
215.786636,-0.011929159237306,-0.0030573578133673,0.0089041640403758,2.4252564907074,-0.390292218327522,-9.39369640350342
215.806802,-0.0424654621098644,-0.008904770826858,0.0044052420452437,2.39944278597832,-0.181891590356827,-9.51919736862183
215.826622,-0.028156738246768,-0.0131311605887048,0.003167607922599,2.42183210849762,-0.0968684233725071,-10.7641939163208
215.84661800000003,-0.0373085759598604,-0.0201584052315296,0.0117587280471409,2.21370369195938,-0.585073399543762,-9.92666053771973
215.866618,0.0007045571660015,0.0216186400966415,0.0093348269140959,2.70566143989563,-0.440854719281197,-9.59252195358276
215.886618,-0.0277320220714329,-0.0121037952630857,0.0073472788833358,2.35729470252991,-0.382063794136047,-9.34756889343262
215.906807,-0.0233466657916253,0.0009549366918631,0.007030900956006,3.49201521873474,0.807607319205999,-9.67025165557861
215.92661300000003,-0.0060229596628538,-0.0073035600149455,0.0071428128482306,2.09325499534607,-0.937731224298477,-9.29177179336548
215.945173,-0.0466606331717777,-0.0344027726134068,0.0093024860763991,2.14901716709137,-1.00258704423904,-9.25886249542236
215.967224,0.0009775237312865,-0.0169220920704272,0.0106733610829355,2.60809917449951,0.174070665240288,-9.60681715011597
215.986385,-0.0265850325015272,-0.0159772769741935,0.0107633898980116,3.137992811203,-0.279842478036881,-9.22291345596313
216.00678800000003,-0.030696329742943,-0.0338454941794353,0.0125793983309187,2.2021638661623,0.0230795621871948,-11.0501804351807
216.02659900000003,0.0206350326991103,0.0039363184224046,0.0101669382567156,2.12379130125046,-0.649543961882591,-7.76252784729004
216.04616,-0.0849884333510387,-0.046571283048536,0.0106231572986809,2.84389653205872,-0.0926064744591713,-10.6094270706177
216.066387,-0.0197975150209091,-0.0254096773354539,0.0134951435875985,2.47734596729279,0.03999964594841,-10.3455009460449
216.08659900000004,0.0162067003361593,0.0201968315405027,0.0151234681619651,2.89043612480164,-0.200309950113297,-8.9272442817688
216.106814,-0.0863685278073508,-0.0412442985443345,0.0146806339314232,1.81083784103394,-0.540817022323608,-10.5373419761658
216.12640400000004,0.100133289419715,-0.0032365328127193,0.015120257691558,3.33667922019959,0.0020503275096416,-8.50113554000854
216.146618,-0.0724847334240056,-0.0142206563996589,0.0237488447952303,2.31788606643677,0.212243749201298,-8.43328619003296
216.166408,-0.0061654755974088,-0.0026049117014528,0.0200054886168477,2.24153566360474,-0.161190396547318,-9.73644075393677
216.186619,0.0068754414662464,-0.0174100304274487,0.0138831179995839,2.38241727352142,0.0536032885313034,-9.1715705871582
216.205177,-0.026765729186798,-0.0100843032056463,0.0174532517581472,2.65856878757477,0.0267860442399979,-10.3337461471558
216.22725000000003,0.0580907074796669,-0.0096525167146287,0.0195686373850574,2.53506084084511,-0.332445198297501,-10.3326988220215
216.24638400000003,-0.0324832720795171,-0.0199584238119176,0.01900910035367,2.10315442085266,-0.325843286514282,-8.77755393981934
216.266612,0.0155941093462287,0.0063973552447254,0.0219998682478778,2.94529151916504,0.0904222071170807,-8.24236783981323
216.28659700000003,-0.102196902246159,-0.0708716796526368,0.026687353181469,2.47740304470062,-0.294634646177292,-11.2769313812256
216.306538,0.110866372188278,0.0254690177747619,0.0233859695530296,3.08374953269959,-0.117120260000229,-8.55673942565918
216.32638100000003,-0.0589078049847529,-0.0288962998037345,0.0201524122607189,2.31181390881538,-0.0057238608598709,-9.13177070617676
216.346386,0.0180993012849361,-0.0304473674922862,0.0303767030548663,2.78859674930573,-0.0125789046287537,-8.94214677810669
216.366383,-0.0022691563173863,-0.0207581053524612,0.0302337540311202,1.91259393692017,0.32993540391326,-9.71203088760376
216.386597,-0.0060645307805153,0.0120364010692463,0.0253325299351546,1.94497267007828,-0.245973618328571,-9.35053634643555
216.406818,0.0196712713563228,-0.0409143360610942,0.0292850929306516,1.77554988861084,0.0960095129907131,-10.4074498176575
216.426689,-0.0049858023078028,-0.0257154790211529,0.0305480586578716,2.83924236893654,-0.572889046743512,-9.36441421508789
216.44640500000003,0.0065408048466058,0.0104715166637073,0.0320868213580911,3.73794286251068,-0.100109276175499,-10.3096342086792
216.466626,0.0005400370100545,-0.0126397070364546,0.0302565009785778,2.17367527484894,0.344597655534744,-8.58339643478394
216.48661300000003,0.0305407727223024,0.0192112030403525,0.0339975843560181,2.62907413244247,-0.0345736384391785,-8.70892772674561
216.50744000000003,-0.0859325819911843,-0.0409578103403222,0.0330336014382194,2.23110599517822,-0.318323916196823,-11.1880474090576
216.527238,0.119150184905374,0.0194870265266011,0.029186412984398,3.03338549137116,-0.26437631547451,-9.1179349899292
216.546599,-0.118117503702882,-0.0456355559158917,0.0311860138317162,2.113454413414,0.104149079322815,-9.86345462799072
216.566604,0.0978247703962897,0.0301407575667562,0.0294276362069948,2.79831149578094,0.465828692913055,-8.93268804550171
216.58660300000005,-0.0990278621050618,-0.0435759046896733,0.0316497741176371,2.263418841362,-0.288194239139557,-9.26194362640381
216.606715,0.0224327526714826,0.0162156081590873,0.0271728851060378,2.81474094390869,0.896833893656731,-10.3700201034546
216.62638500000003,-0.0137981955889579,-0.0051360322367026,0.0261516851761213,1.95563994050026,-0.492295426875353,-8.55151538848877
216.646629,-0.068477883130427,-0.0436938974370279,0.0250803425371135,2.05414137840271,0.220447885990143,-11.7894535064697
216.66661900000005,0.0871833825164439,0.0397046265817028,0.0268031332265523,3.06792118549347,-0.146839692443609,-8.14565382003784
216.686618,-0.148040275874288,-0.0419626184539232,0.0304807334694978,2.66557564735413,0.0915971636772156,-10.9630832672119
216.706774,0.108574088150565,0.0370995715429966,0.0271376527854632,2.180730676651,-0.43341600894928,-9.35583066940308
216.726717,-0.130309265872877,-0.0488749136916404,0.022951605358704,2.5338134765625,-0.161016529798508,-8.99723596572876
216.746621,-0.0216971672215728,-0.0044860215831387,0.0259823209075109,2.40848658084869,-0.0738247931003571,-10.4204496383667
216.76662,-0.0311301579316927,-0.0292251616838286,0.0272179846163713,2.58712606430054,-0.35645397901535,-9.14050254821777
216.786611,-0.0320866753502788,0.0007036502708437,0.0221038685983785,2.52986526489258,0.0160067319869995,-8.65722169876099
216.807395,-0.0486965055643489,-0.0355309791885398,0.0202267139845129,1.94006993770599,0.261685997247696,-10.781502532959
216.827231,0.0855760354852392,-0.0045505161862541,0.0243200533376745,3.33894999027252,-0.223517063260078,-7.94506549835205
216.846608,-0.0695273331344967,-0.038061393512623,0.0210606131960124,1.86091101169586,0.340418660640717,-10.9267335891724
216.866603,0.0615871796200238,0.0323639037502256,0.0182638446399761,2.1865933328867,-0.0308036267757416,-9.23451251983643
216.88660700000003,-0.0721739974332508,-0.032818789199429,0.0168556118735088,2.53615568876266,-0.0134576439857483,-11.1126553535461
216.90675400000003,0.0530503509066682,4.39824029856428e-06,0.018755776436795,2.92840872555971,-0.730954319238663,-9.63157415390015
216.926604,-0.0506962550752429,-0.0007800845061666,0.020884712227848,3.04792294502258,0.317989497631788,-9.36436281204224
216.944995,-0.0065367696247683,-0.0039079812036991,0.0184509162081679,2.04202700853348,0.46999386548996,-9.31439075469971
216.96662300000003,0.0053020292634838,-0.0026639651111656,0.0185928262439611,2.77057540416718,-0.27613542675972,-9.33934574127197
216.986623,-0.0220115237799675,-0.0229713234041665,0.0158968104021244,1.63646651208401,-0.465249174833298,-8.71076202392578
217.006775,0.020544470778345,-0.006978452304411,0.0163725305306871,2.92962667942047,0.283247673511505,-8.50367546081543
217.02662100000003,-0.0330773381201991,-0.0233664732527247,0.0221763842287334,2.45985903739929,0.351795697212219,-8.37020444869995
217.04662,-0.0041012739164344,-0.0248483385867484,0.0240293336664356,2.73517529964447,-0.322382262349129,-10.4448108673096
217.065042,0.0632430875609348,-0.0182024540104109,0.0177524944921009,2.12070746421814,-0.368319565057755,-8.75486364364624
217.087246,-0.0513323817817947,-0.0478608349363874,0.01354291916066,2.80072801113129,0.691841250658035,-7.74112615585327
217.10675000000003,-0.008926325210734,-0.0470144069718342,0.015222252267412,2.90740214586258,0.0830041706562042,-9.4469838142395
217.1266,-0.0646301116218487,-0.0658019577031686,0.0221447747542811,1.62836940288544,-0.719702968001366,-10.567067527771
217.14660100000003,0.0511188457298473,-0.0036648184895785,0.0202121773854648,2.96806907653809,0.33131707906723,-9.84678363800049
217.166611,-0.0607577876608877,-0.045798278290081,0.0159352427771868,2.61720628738403,0.292533946037293,-9.27395105361939
217.186604,0.021594298389081,0.0222035877693104,0.0129973581624805,3.19516582489014,0.126406246051192,-10.5626804351807
217.206751,0.0221868492685891,0.0077794718911139,0.0124793347244728,2.48856763839722,0.229155242443085,-9.99456901550293
217.226604,-0.0194936190933588,0.0470445805289534,0.0088221315739122,2.18664654493332,0.100080448389053,-10.5133750915527
217.246602,0.0459784837256794,0.0622583782952559,0.0097715783661136,3.21610598564148,0.0009877204895019,-11.2028007507324
217.266632,-0.0596648042923999,0.0374091225453838,0.012070694063278,2.03549826145172,-0.148996344208717,-10.6178810119629
217.286682,0.0712443665724809,0.0786096235101193,0.0079193810643133,2.70397796630859,0.208009740710259,-10.4385454177856
217.306781,-0.0556745974542787,0.045123511925754,0.006338744622549,2.15104746818543,-0.138869193196297,-8.58260040283203
217.32640300000003,0.0258739890732855,0.0794982164772797,0.0096297669264658,3.52709748744965,0.193458938598633,-9.08723964691162
217.346628,0.0022964356692852,0.0334914612242042,0.0049665788409644,2.25672838687897,-0.234255307912827,-7.26765222549439
217.36728600000004,-0.0310140262309694,0.0353195378016416,0.0024442841254708,2.14788300991058,0.202924531698227,-9.12657175064087
217.387222,0.052346020937907,0.0466068677349269,0.0074968469279075,2.09756247997284,0.0906731158494949,-8.94875984191895
217.406749,0.0079805244637479,-0.0043709657403555,0.0064373584928143,2.56589887142181,-0.592074820399284,-6.84902172088623
217.426606,-0.0298798689109259,-0.0347038960126126,0.005528287354806,3.0843537569046,-0.211231500655413,-9.60438861846924
217.44660300000004,0.026488418289885,-0.0214258903728825,0.0026893789630358,2.20990905761719,0.150928831100464,-9.61767292022705
217.46660000000003,0.0113005229971029,-0.0278652639318171,-0.0005994993241259,2.39615910053253,-0.0949670016765594,-8.00145959854126
217.486605,-0.0823305127872389,-0.0519156679377869,0.0031436244638519,1.87051457166672,0.0499414429068565,-10.7901915550232
217.506747,0.0676702194891833,-0.0159098606021395,0.0057962604928568,3.20392446517944,0.516091501712799,-8.99595851898193
217.526406,-0.0623706011559356,-0.0446603032101066,0.0045794085261147,2.84004204273224,-0.435082364082336,-9.75447244644165
217.546622,0.0402076321578445,-0.0187593936015068,0.0019773118526204,2.37089693546295,-0.155468392372131,-11.2321260452271
217.566619,-0.0177347171217894,-0.0287252214358092,0.0016585836633461,2.54518849849701,-0.276092505455017,-10.7067195892334
217.58662200000003,-0.0093786017088714,-0.0063577796263471,-2.61728010261211e-05,3.01374821662903,-0.149236719310284,-12.7193738937378
217.606742,0.0591979599474565,0.0278547874107776,0.0011421474842038,3.69869303703308,-0.0307060450315475,-9.35155830383301
217.626628,-0.102631454400483,-0.0064971839233659,0.0050844316539937,2.19782262146473,-0.085267561674118,-11.655491733551
217.646618,0.116636414510199,0.0724123659837757,0.0005885862462375,2.59178606271744,-0.11011757850647,-10.0342304229736
217.66724800000003,-0.030662237018633,0.0381317986173243,-0.0038210921521004,2.86966316699982,-0.480918381363153,-9.52949895858765
217.68721600000003,0.0221365376558969,0.051278792350308,0.0025165463116522,2.80450924634933,0.252513682842255,-10.4306638717651
217.706732,0.0512944701435173,0.0421387106148682,0.0069917722234734,2.46760363578796,-0.16636705994606,-8.75712413787842
217.726712,-0.0209357888187971,0.0142029738378858,0.0026034696585021,2.50984461307526,-0.548738008737564,-9.67558994293213
217.746602,0.0458153344467511,0.026250031665003,-0.0012602092518194,3.02647085189819,0.33951829969883,-9.66104221343994
217.76660200000003,0.0231651004571505,-0.0063921777264738,0.0010403130974956,1.97051074504852,0.0508680701255798,-8.08264989852905
217.786602,0.0313539144269357,-0.0042800604789312,-0.00139289531971,2.93299732208252,-0.48047533929348,-8.04623155593872
217.80674800000003,0.0177831333922522,-0.0425844093045994,-0.0025513804452427,1.90934065580368,0.642059129476547,-9.16691703796387
217.826619,0.0436092819113432,-0.028488772699006,-0.0003707912854067,3.18542537689209,0.267009710520506,-8.49331655502319
217.84661900000003,0.0203237041845811,-0.0503386008126049,0.0027491133874514,2.53861359357834,-0.948500493168831,-9.54105920791626
217.866622,0.0218315387061624,-0.0662886207018861,-0.0002852049893828,2.55231461524963,-0.316566255688667,-9.84885931015015
217.886616,0.0120339406633935,-0.0758898236266756,0.0010293635620401,2.98359067440033,0.245167541503906,-8.97706050872803
217.906744,0.0096376884698395,-0.0807558771874062,0.0007611483500347,2.34714169502258,0.263962578773499,-10.266361618042
217.926033,0.0317503795294321,-0.0372273564085551,-0.0014244999320437,3.30957026481628,-0.340763455629349,-8.85822477340698
217.944994,0.0198254989268966,-0.0438615793867136,-0.0014239379902369,2.78739495277405,0.414021366834641,-11.3455808639526
217.96660000000003,0.0284619751425573,-0.0344633871090288,0.0042988906560431,2.44228532314301,-0.411142629384995,-10.2396330833435
217.986609,0.0175854153341556,-0.027844638517746,0.0059405786181809,3.98054232597351,-0.569885593652725,-10.0480697631836
218.00675,-0.0305074481017648,-0.038201909058035,0.0072618375113656,2.15030893087387,0.0959546804428101,-10.0668383598328
218.02659800000004,0.0082825056967642,0.0107129439436327,0.0060143238004672,2.42853758335114,0.412153077125549,-10.521785736084
218.046603,0.0176614463372833,0.0175293888142717,0.0076544203758397,2.89609537124634,0.0904375731945038,-8.47910556793213
218.066601,-0.0495300492142386,-0.0066396746466616,0.0066638317675609,2.67047344595194,-0.139247500896454,-12.208696937561
218.086597,0.101447411040906,0.0609035620027512,0.0072609619823286,3.28396632671356,-0.828158402442932,-8.46298227310181
218.106497,-0.0943227392324429,-0.0409033234826952,0.0078832032031529,2.41056447029114,0.201160353422165,-9.05879163742065
218.12662,0.007741565756703,0.0274007432837854,0.0059950830526717,2.77803699970245,-0.414875299483538,-10.0855796813965
218.146684,0.0366098827197146,-0.0037558505470662,0.00154389545517,2.14713398218155,-0.183675330877304,-8.84159593582153
218.16663,0.006827310805026,-0.0064393225446024,0.0078052386784211,2.67755082845688,-0.205047570168972,-8.70289468765259
218.186625,0.0090708908325048,0.0174782648782347,0.0099270849642357,3.07247643470764,0.163983398675919,-8.09378023147583
218.20651100000003,-0.034694563408077,-0.0291224928547424,0.0056418395175992,2.5047102175653,0.0611877731978893,-9.29515838623047
218.227239,0.00175168740872,-0.0244098747812659,0.0066367653501946,2.82791957855225,-0.43854648321867,-9.88596611022949
218.24692600000003,-0.0046145995381002,-0.009258985528045,0.0080524428358196,2.60130345821381,-0.472072816640139,-9.3485104560852
218.266611,-0.0304518794791584,-0.0188597989211243,0.0083054717927972,2.80517210960388,-0.253724876046181,-10.4031303405762
218.28659500000003,0.0527039653075708,0.0072803969041656,0.0073276778394218,2.58650150299072,0.0784759640693665,-9.01362247467041
218.306751,-0.0453518267468739,-0.0126752976409815,0.0106627112788745,3.12348203659058,0.110866904258728,-9.50251731872559
218.326594,-0.010482720878747,0.0154109933417641,0.0112150384819214,3.23631947040558,-0.553903424739838,-10.3495891571045
218.346601,0.069762160302041,0.0252427913454671,0.0046350569954721,2.83931317329407,0.131343650817871,-8.74441528320313
218.366628,-0.0771820409246103,0.0100647650715177,0.0083561994504489,2.43889923095703,0.266537375748158,-9.61636734008789
218.386621,0.0841274787890872,0.0450287104003251,0.0104616151487597,3.18897051811218,-0.4371403247118,-9.65355463027954
218.40677900000003,-0.0473277775391837,0.0163888345218647,0.0066534167951356,2.61112773418427,-0.569473147019744,-11.0094795227051
218.42640900000004,0.0347175374344122,0.0486415014616371,0.0058287189239157,3.20624008178711,0.684041392803192,-9.17753295898438
218.446622,-0.046155589863055,0.0170362331469319,0.0079717990007826,2.16697521209717,-0.225521650910378,-10.2022459030151
218.466615,0.0537373887922685,0.0564406112666523,0.0072325782470742,2.876123046875,-0.770338940620422,-9.17307205200195
218.486621,-0.0091274066638716,0.0489374475571238,0.0070304244868782,2.68125491142273,0.201893258094788,-8.54988584518433
218.506748,0.0247255950261441,0.0494045146015242,0.0058316325998033,2.85616917610168,0.508047086000443,-10.6360229492188
218.52724,0.072022445096866,0.0439053978573325,0.0011781955181055,3.32620992660522,-0.484926429763436,-7.08035974502564
218.547211,-0.0806893668079942,0.0238188948857493,0.0010580031531083,2.4418984413147,0.306024193763733,-9.22399482727051
218.566386,0.0544869655737678,0.0240134865553558,0.003796052444787,2.93785245418549,-0.112651008367538,-9.72331638336182
218.58659900000004,0.0113334683132089,0.0105348832109233,0.003088068973959,2.51559591293335,-0.406550784409046,-7.98720464706421
218.60672900000003,-0.0019256307166832,-0.0205089635011727,0.0033009055614148,2.65048189163208,-0.280601909011602,-9.53758583068848
218.62660900000003,0.0154612345286381,-0.0068517611695632,0.0049598365453663,2.79903883934021,0.265100535005331,-8.86591968536377
218.646597,-0.0159511558754828,-0.0162606449149863,0.0037785950384974,2.6018657207489,0.47511051595211,-9.56369504928589
218.6666,-0.0114937340395617,-0.0106576526929631,0.0065734270324872,3.16028542518616,-0.625510773062706,-9.62928695678711
218.686622,0.0339047214639832,0.0006215018089148,0.0086382669252459,2.84341521263123,-0.36664804071188,-10.4152736663818
218.706753,-0.049952519138869,-0.0222056620167905,0.0049589957779805,2.8160605430603,-0.407078748941422,-10.9166282653809
218.726756,0.0545409242969398,0.0117904175347916,0.0056652898946995,3.4894248008728,0.0564677529036999,-8.62723731994629
218.746619,-0.0814569438959873,-0.0278120823782622,0.0078807101291895,2.62280375957489,0.354721784591675,-10.2327749252319
218.766616,0.0200380116147701,0.0253571715146653,0.0074294780636901,3.14494588375092,-0.855545756220818,-11.7044384002686
218.785046,0.0742686804735968,0.0379929212711333,0.0070538107705659,3.43676626682282,-0.438684743642807,-10.4912546157837
218.807395,-0.0290277550972287,0.0216818801732916,0.0103334250092491,2.54160170555115,-0.294558918476105,-9.55392036437988
218.82660300000003,-0.0354465656192454,0.0048028863955157,0.0138502413338553,3.23491997718811,0.037622207403183,-10.8290221214294
218.84659600000003,0.0493890822925954,0.0378059239163667,0.0173877519596354,2.31236534118652,-0.37207654863596,-9.8566219329834
218.866597,-0.0400029952069721,0.0416500135158255,0.0157615563755066,3.20324175357819,-0.437120699882507,-8.48874092102051
218.88660400000003,0.0146152988938171,0.0396748817195588,0.0130438964900337,3.75874996185303,0.376044392585754,-9.61552286148071
218.90672,-0.0678621271213736,0.0168637578325988,0.0201207405274761,2.17722359895706,0.4958998888731,-9.68906621932984
218.926347,0.0491424082300344,0.0385887432967376,0.0226478030560649,3.42781271934509,-0.729941982030869,-8.15674533843994
218.946002,-0.0582162164668525,-0.0098106454020787,0.0198989325785049,2.52512655258179,-0.824643971025944,-8.91632976531983
218.96659800000003,0.0245455149070751,-0.0093948171647346,0.0187303788745941,2.73515968322754,-0.0808333158493042,-9.39672365188599
218.986623,0.0325171477265993,-0.0112933985230786,0.0191022700418741,2.59350216388702,0.183322107791901,-7.68616199493408
219.00683200000003,-0.0901271579253433,-0.0509205761014772,0.0239732936532017,2.68109619617462,0.355568920820952,-9.70565071105957
219.026618,0.018365474895379,-0.0182821194259179,0.0242968651339981,3.19722366333008,-0.164692655205727,-10.0807399749756
219.046618,0.0514594762376097,-0.0087678077017501,0.0226543485144602,3.1819650888443,-0.356920102238655,-9.09974479675293
219.06662,-0.0399560744494718,-0.0497817619777741,0.0223666451987683,2.75947723388672,-0.476654845476151,-9.32132396697998
219.08663,0.0016674002508102,-0.0311695473285247,0.0268541423507513,3.03928914070129,0.107187479734421,-10.5009459495544
219.107386,0.0275186772936404,-0.0105372025284143,0.0312538214665353,3.0596782207489,0.0772406816482544,-10.8407796859741
219.127213,-0.0266353668546569,-0.0024326471911234,0.0276275849624968,2.88049597740173,-0.306796523928642,-11.5016775131226
219.146598,0.0712405564173548,0.0148707770121893,0.0227379911873617,3.37373509407043,0.053232604265213,-10.2287629127502
219.1666,-0.0278725439492504,0.0221878168838221,0.0238656299765286,3.50454460978508,0.487041735649109,-9.68893375396729
219.186348,-0.024212517729464,0.0325095291917879,0.0286458603863368,3.04429743289948,-0.230270767211914,-9.37614936828613
219.206755,0.0257249970408889,0.0727448061464282,0.0218273889092123,3.0604368686676,0.188891542702913,-11.9854888916016
219.22663,0.0158510965892761,0.0578272230702138,0.0216338066812648,2.46737313270569,0.0378079682588577,-9.57016887664795
219.246597,-0.0037905339013471,0.0529007838089983,0.019867163787832,2.94172961711884,-0.442578837275505,-10.3694095611572
219.266633,0.0164955885218561,0.0544913362355527,0.0216976770985783,3.061887550354,-0.102185362577438,-8.6485764503479
219.286622,-0.0356198827292404,0.0426159569937121,0.0225483047499679,3.58252782821655,0.223047941923141,-9.93393573760986
219.306732,0.149499597304701,0.0611148612360232,0.0204241905826616,3.18644924163818,-0.360882863029838,-7.94297027587891
219.32662600000003,-0.0544121342951661,0.0223697181316952,0.0251581551358971,2.36234505176544,0.444909566640854,-8.0392204284668
219.34661900000003,0.0319626534353142,0.0199909859583095,0.0219841882649582,2.57818887233734,-0.505310100317001,-8.56282138824463
219.366618,0.016723887068102,-0.0083928443709009,0.0201072545159274,2.77591803073883,-0.786984133720398,-8.0988284111023
219.386622,-0.0411485338718653,-0.0359834210393965,0.0183141125768247,3.33191530704498,0.222898808121681,-8.13800716400147
219.407193,0.0013869720404986,-0.0578504131676938,0.0193000726109526,2.81239223480225,0.430335372686386,-8.38557376861572
219.429347,0.0001547346364646,-0.0592503849265075,0.0279031764578149,2.50144975185394,-0.29324261546135,-7.98585424423218
219.446601,-0.0544109428560304,-0.0545950245819244,0.0273455436458608,3.52175712585449,-0.000886258482933,-10.6995931625366
219.46659800000003,0.0669848723558515,-0.0459673693479438,0.0188097922107979,3.3890456199646,-0.233467367291451,-10.8919706344605
219.486601,-0.0151337067739382,-0.0562819201195588,0.017428004990051,3.15233626365662,-0.174516868591309,-9.3473165512085
219.506528,-0.0513295093553149,-0.0542998329304127,0.0265158299768527,3.64374938011169,0.822408643364906,-9.78962421417236
219.526603,0.0233891091241677,-0.00376130659499,0.0234765575135932,3.32582907676697,-0.752854818105698,-11.1949243545532
219.546601,-0.0021257224799406,-0.0104525738644677,0.0184642137862669,3.49175925254822,-0.606002289056778,-11.1370775222778
219.56662,0.0163310809715387,0.0189390299861375,0.0197002756673161,3.4431206703186,0.440033376961947,-9.80838375091553
219.58662300000003,-0.0631998910864074,0.0056330895230355,0.0252433062232974,2.93390038013458,0.320407918095589,-11.9710350036621
219.60677100000004,0.064735243519949,0.0679631622490222,0.0169623161019766,3.56490936279297,-0.784837692975998,-9.96947612762451
219.626619,-0.0460236189815542,0.0673244374807746,0.0251880966429044,3.6989137172699,0.0969797372817993,-9.9325626373291
219.64671200000004,0.0020156501219231,0.058290652473152,0.0230558336758028,2.49476108103991,0.40949147939682,-10.0026832580566
219.667276,0.0323387135595095,0.0803104433564531,0.0220795559488657,3.71574301719666,-0.721400988101959,-8.06916131973267
219.68721900000003,-0.0481785479360132,0.0209778352811406,0.0197680681517071,3.01335296630859,0.171448588371277,-9.32446184158325
219.706745,0.0396276027520829,0.0424669037677894,0.0222628969608603,3.07070727348328,-0.430590730905533,-8.56362438201904
219.72674,0.0061662216376306,0.0376102821770977,0.0216497804404546,3.06193969249725,-0.0748301088809967,-8.34461212158203
219.746348,-0.0097492139965565,-0.0029884606497141,0.0164850508664719,2.67341780662537,0.772545307129622,-8.63321886062622
219.766599,0.0655188300534919,-0.0005178231682861,0.0229503589992664,3.31350085735321,-0.358916552364826,-8.17286348342896
219.786599,-0.0178167562165654,-0.006747672579655,0.0256174952844162,2.94814786911011,-0.275185883045197,-8.31440448760986
219.806531,-0.0250291262781552,-0.0512976825669093,0.0204779419343488,2.64241557121277,-0.197081243619323,-10.7324594497681
219.826595,0.0412104114160684,-0.0128560292876406,0.0157906338346607,3.70326197147369,0.328588405251503,-9.01268224716187
219.846603,-0.0293844309736262,-0.0392834708383485,0.0186470732987182,3.48927853107452,0.414309361577034,-9.25752248764038
219.86668000000003,-0.0227843429752688,-0.0411964118878606,0.029189024065993,2.7717470407486,-0.747941446304321,-10.9452003479004
219.886621,0.020480296642293,-0.0095984358411301,0.0247628998779393,3.71207432746887,-0.0860320501029492,-10.1031787872314
219.906784,-0.0145081185513096,-0.0217016157364365,0.021821887883455,2.97295341491699,0.489848183095455,-8.66380548477173
219.92662,-0.0848426672945655,-0.0158772895267599,0.0214927164256677,2.8539401948452,-0.436110001802444,-12.2060880661011
219.946001,0.100119579939351,0.0376572860252272,0.019564676021557,4.19988870620728,0.162042844295502,-10.4968099594116
219.967265,-0.118747264004242,0.0007820659868651,0.0268570573878102,3.07956962585449,-0.12211494743824,-10.9845500946045
219.987172,0.0600541918368949,0.0608701865565221,0.025307916644334,3.54837310314178,-0.0015279211103916,-10.3951663017273
220.006715,-0.0714391791808989,0.049494320006967,0.0180521256925004,3.13322644233704,0.120459097623825,-10.1298002243042
220.02660100000003,0.0356361391386047,0.0843153804350317,0.0190616320958942,3.48679978251457,0.178621777892113,-9.69734964370728
220.046598,-0.0559997197234276,0.0388005972220998,0.0237796302284286,3.32514019012451,-0.449506235122681,-9.0126088142395
220.066595,0.0013458487481869,0.04024525647062,0.020449194470457,2.31908679008484,-0.0057744204998016,-11.7417909622192
220.086633,0.0467515731430695,0.0326877810802896,0.0169105002174807,3.11819658279419,-0.297060406208038,-8.04560203552246
220.106718,0.0037487440493798,0.053911433477901,0.0220456679920606,3.80243053436279,0.322713069617748,-6.74715394973755
220.12637,-0.107859357087407,0.0088762755347404,0.02200668688743,3.00151996612549,-0.121716049313545,-9.23834590911865
220.14662200000004,0.0448543044420816,0.0317112757418427,0.0217517212796338,3.4368860244751,-0.107579362392426,-9.70330028533936
220.166623,-0.0067535826669713,0.0108664848920699,0.0195443128992726,2.75055129528046,-0.478749567270279,-7.51299428939819
220.186625,-0.0347594101402832,-0.0166690592074798,0.0179313247008506,2.86857309341431,0.133545286953449,-9.14138317108154
220.206538,0.0099573578276766,-0.0340913194629338,0.0188940221995141,3.42044768333435,0.0892452955245972,-8.80410680770874
220.226623,-0.0262482239407768,-0.0507673304680254,0.0221565897209541,2.95663733482361,-0.181259495019913,-8.49721622467041
220.246375,-0.0266521249739989,-0.0250421731640141,0.0174895595223923,3.80643587112427,0.67798445224762,-9.78044624328613
220.267271,0.0385122457521551,-0.0197204799468308,0.0132432384846437,4.01162266731262,-0.0948098033666611,-10.5744190216064
220.289561,-0.0171712840631228,-0.0297509495386997,0.0175130592567467,2.9804717540741,-0.907627636566758,-9.90421371459961
220.306457,-0.0237704519096979,-0.017893929656663,0.0202970462961416,3.1071515083313,0.588561642169952,-10.6008106231689
220.326349,0.0283659763486287,0.0009343733590385,0.0146422500850758,2.91875853538513,0.729925036430359,-11.0833574295044
220.346355,-0.0095320983896515,0.0145338243892138,0.0104557945436594,3.78906683921814,-0.13002587556839,-10.40093126297
220.366357,0.032036526197817,0.0291667240561647,0.0072761593412589,4.1592077255249,0.0287837326526642,-10.2056154251099
220.386608,-0.035169517789025,-0.0009869537779311,0.0109323295995467,2.9473237991333,-0.136613243818283,-8.51297407150269
220.406477,-0.0458899884179987,0.0168739578583253,0.0075742209928149,3.50495717525482,0.296998643875122,-10.6156558990479
220.42664,0.0705423736164373,0.0480878341558787,0.008223534785867,3.39176349639893,0.124979770183563,-10.5426029205322
220.446638,-0.0618896541296742,0.0025139339724534,0.007764687440531,2.59462428092957,-0.280452561378479,-10.6553401947021
220.46639,0.0864990498699821,0.0440827816736484,0.0013666742248448,4.08804421424866,0.2211490213871,-8.63539543151856
220.48664,-0.0474967621593709,-0.0033302044920127,0.0038254916157887,3.06525807380676,0.928677529096603,-7.37700300216675
220.505203,-0.0504960942473386,0.0030793249872281,0.0071382906229832,3.44837374687195,-0.0190591834485531,-10.2879329681396
220.52728,0.0539038051115862,0.0244584259852291,0.0003255926204037,3.42013585567474,-1.22737438678741,-9.70769653320313
220.546633,-0.0900442599906738,-0.030062164898469,-0.0009159466138588,2.29641396999359,0.431462743133307,-8.89776725769043
220.56638200000003,0.0217907419174128,0.0213839630426164,0.0028698718277034,3.79998569488525,0.200300660729408,-9.62445774078369
220.58663,0.0290178590269662,-0.0040253376034823,-0.003717417650468,3.54033150672913,-0.0257751286029816,-8.63333759307861
220.606787,-0.0856418069261926,-0.0382886907546469,-0.002285839172834,3.43698749542236,0.115258150547743,-9.0234411239624
220.62663100000003,0.0272715650522914,-0.0202171939526107,-0.0014419599062495,3.59016923904419,-0.240723639726639,-8.92466325759888
220.646379,-0.0141372730594761,-0.0414323740651141,-0.0079614526787346,2.90841498374939,-0.681968232989311,-9.06710519790649
220.666411,-0.0254618632218114,-0.0291003398514118,-0.0084478282927689,3.33587980270386,0.699702075496316,-9.19998369216919
220.686402,0.0119870427646934,-0.0228081115113595,-0.0060186971845947,4.07529230117798,-0.290418276935816,-10.2845310211182
220.706796,-0.0254238936449827,-0.0408432732221577,-0.0045191236114855,2.8843150138855,-0.194772610813379,-9.63746871948242
220.726878,0.0261804024575196,-0.0005072578752069,-0.0067945555202664,3.42383482456207,-0.07593954205513,-7.48124847412109
220.746641,-0.0364099586172495,-0.0548935052966892,-0.0096829971270985,3.67745575904846,-0.362307649850845,-10.4333923339844
220.767251,0.016584572371662,-0.0371269199595424,-0.0063824204956815,2.97698352336884,-0.206629717350006,-9.3692626953125
220.787218,-0.0524664935913726,-0.0379816895959426,-0.0078642568826225,3.30313148498535,-0.101453080773354,-9.14091100692749
220.806785,0.0325787533916355,-0.0252558004736184,-0.0113031885255489,3.55709457397461,-0.0933718912303448,-10.2216184616089
220.826636,0.0524315575326852,-0.0349161633345684,-0.0085506072583658,3.43252973556519,0.25345658659935,-7.44505214691162
220.846637,-0.0490790425113574,-0.0556863302772243,-0.0054517225949941,3.43371105194092,-0.0024758920073509,-8.12787733078003
220.86663400000003,-0.0147030369168176,-0.0730569255606499,-0.0089335622033187,2.50324516296387,-1.02582026720047,-11.0893844604492
220.886637,0.0324318340088222,-0.0450175327873066,-0.0183695366304657,3.05955045223236,-0.263966208696365,-8.03308277130127
220.906791,-0.156346077662347,-0.0615009230248222,-0.0108014955623772,3.8599470615387,0.428491083532572,-10.237505531311
220.926648,0.0060540272727757,-0.0319409454610141,-0.0041364087653094,3.36349234580994,-0.330454379320145,-11.3037647247314
220.946001,-0.010318199065722,-0.0296587520818746,-0.0045242247783853,3.81623406410217,-1.26389932781458,-8.76956834793091
220.96666400000004,-0.0582840641082708,-0.0446093468164993,-0.0055114399012014,3.17005777359009,-0.0697441339492798,-9.9280855178833
220.986674,0.0277686335544166,-0.0035635527321706,-0.0056804731684663,2.94760177135468,0.56453840918839,-10.1425016403198
221.006812,0.0194113077643277,-0.0167984564691865,-0.0052645942126969,3.62610988616943,-0.928229296207428,-9.10577220916748
221.02666500000004,-0.0375253860134047,-0.0133663101467068,-0.0055654936696372,3.5949001789093,-0.288533622026444,-10.0738632202148
221.046675,-0.0023951759213443,-0.0022588226601494,0.0004948246852539,3.47508125305176,0.274970084428787,-8.9135272026062
221.06667300000004,0.0215239479087749,-0.0112414918395814,0.0003110352080111,2.43415776491165,-0.717539793252945,-9.77142486572266
221.086671,0.0221313259086264,-0.0007010075864027,-0.0037233509257809,3.37978301048279,-0.584987634420395,-7.76046476364136
221.107476,-0.0758303439928094,-0.034906147451643,-0.003636803942442,3.43584275245667,0.897397232055664,-8.77315034866333
221.12725,0.0885773355309648,-0.0318869498086736,0.0034707444867239,2.79275636672974,0.0385055333375931,-7.29156198501587
221.14666600000004,0.0360925658479616,-0.0323937960183416,0.0064930552541613,3.55976734161377,-1.20577533841133,-8.13739814758301
221.166675,-0.0042700996346705,-0.0634280687251353,0.0012235436030961,3.06557514667511,0.355892700701952,-9.10292768478394
221.186686,0.0182994112168709,-0.0792588487086758,-0.0031347823747699,2.14898710995913,-0.279502314329147,-8.98037090301514
221.206794,0.0139258207240263,-0.0474792671433272,-0.001739042682394,3.99714787006378,-0.485363087058067,-8.10016679763794
221.22668400000003,-0.0547797030926509,-0.0401986490192385,0.0048684486747482,4.20311307907105,0.0314706936478615,-10.5246336936951
221.246688,0.0114812183655885,-0.008848427509155,0.0011151108942429,3.10693470239639,0.315807134658098,-12.1357301712036
221.26671,0.0913155040065044,0.017983810755065,-0.0005436951541591,3.31284766197205,-0.142379367351532,-8.02708721160889
221.28646000000003,-0.0740589542808687,-0.0421775452086449,-0.0023691789111499,2.89765276908875,-0.641389483213425,-10.3800510406494
221.306842,0.0663479502518238,0.0338097590540277,-0.0033408994958373,3.26012346744537,0.184941700100899,-11.3773944854736
221.326711,0.0736162540369254,0.0349914242106609,-0.0014718729387004,4.43915529251099,-0.305425218492746,-9.33580865859985
221.346472,-0.030833421350783,0.0348317768703368,-0.0007669448831169,2.75486798286438,-0.30322952568531,-9.40552310943604
221.36778200000003,0.0013659661494653,0.0549944121191498,0.002502806142055,2.76114766597748,-0.208113059401512,-10.8276365280151
221.38730400000003,0.0839159260228698,0.0919002262573738,-0.0030772725628744,2.99285033941269,-0.406355857849121,-8.79154577255249
221.40684500000003,-0.0119848910340179,0.0225621343684917,-0.0045697974140998,2.90937926769257,-0.834715974330902,-7.02937977313995
221.426467,-0.162928573172961,0.0215253589699369,-0.0084166820604105,4.14803147315979,0.476783610880375,-9.81051435470581
221.44671800000003,0.078487511532987,0.0516217506976773,0.0030783939460755,1.96389101147652,-0.0813694328069687,-7.52352647781372
221.46672,-0.0557051868788133,0.011280474512518,0.0044459063639171,3.97723307609558,-0.27716908454895,-6.91668825149536
221.486723,-0.0347059549321205,-0.0500876656921374,-0.0032429147530174,2.56142346262932,-0.870951098203659,-11.6342670440674
221.506864,0.0584845206062488,-0.0429983381753816,-0.0078138363170469,3.19842224121094,0.884268236160278,-8.05169305801392
221.526725,-0.0065565606926311,-0.0108298443214479,0.0021516412135396,3.56899461746216,-0.1641547113657,-7.41768188476563
221.54672700000003,-0.0762193621272565,-0.0551902292719693,0.004789272123165,2.98039803504944,-0.683725991845131,-10.6485538482666
221.566748,-0.0070592279955177,-0.0317739110441768,0.0006310155232069,3.13945729732513,0.0239823341369629,-9.94031276702881
221.586814,-0.0610368116209795,-0.0304476864132366,-0.003065681760397,2.95559715628624,-0.251933661103249,-10.9985382080078
221.606903,-0.0064200841048799,-0.0134110539474771,-0.0125615436697514,3.89558079242706,0.499886903166771,-10.7972593307495
221.626758,-0.0518823873000962,0.0162345719159259,-0.0014183052933517,4.06301374435425,-0.458682537078857,-8.90591802597046
221.646753,-0.0453749589649839,0.0014210107322272,0.0088660634360165,3.46621570587158,-0.711745166778565,-11.2382369995117
221.667349,-0.0165797583231294,0.0079002986858366,0.0004833517868406,2.48367745876312,-0.356974514573812,-11.4698314666748
221.687335,-0.0007852469849551,0.0186752564091627,-0.0053544880942727,2.91747884750366,-0.115555280447006,-9.291357421875
221.706887,-0.0851281291754359,0.0106843588733923,-3.69454637406997e-05,3.89828820228577,-0.146530485153198,-11.5003684997559
221.726884,0.0270659725000021,0.0453546217641351,-4.44209664525352e-05,2.86069784164429,0.0104271650314331,-9.30782833099365
221.746753,-0.0803147495105558,0.0117304684743794,0.0095596028082617,3.16191093921661,-0.567658066749573,-8.37818069458008
221.766756,-0.0498932280568152,-0.0156390774739434,0.0021411666843227,2.91231645345688,-0.128822445869446,-11.9783536911011
221.787618,0.0651431466038565,0.0062343824668051,-0.0066507204627918,3.21845486164093,0.4402483060956,-9.04141283035278
221.807546,-0.0174268227832074,0.0096539929344679,0.0003170754980179,4.12492861747742,-0.239241652935743,-8.62724685668945
221.82764200000005,-0.107500991849503,-0.0118851226241947,0.0145766634083278,2.68959382772446,-0.532621994614601,-10.2279146194458
221.847641,0.0763170716915485,0.0357471567413011,0.0128526096703079,2.86044795513153,0.145215478539467,-7.40512809753418
221.867387,-0.0827263887392983,-0.0628326153550165,0.0006119355119846,1.96534138917923,-1.50347437858582,-8.92321043014526
221.88763800000004,-0.0825840177990749,-0.0096442223286882,0.0013891755400685,4.54434204101563,1.10738463252783,-10.898131942749
221.90774700000003,0.164178828164446,-0.0120193371894088,0.0056304707536432,3.22791811227798,0.05201495885849,-7.83654713630676
221.92764700000004,-0.0787860772321844,-0.0575090059637651,0.0134368931505756,2.54075040817261,-1.11498324871063,-9.16067895889282
221.946004,0.0417274303096747,-0.0209360338296268,0.008868423943734,3.04724793434143,-0.15425413697958,-12.8945562362671
221.96826,0.0796247395962471,-0.0091333872953688,-0.0046204848876081,2.76964699029922,1.41631569862366,-8.51434006690979
221.987978,0.0188583595120909,-0.040041044915362,-0.0009201544455298,3.86533446311951,-0.842750072479248,-9.06288137435913
222.007742,-0.128127244875523,-0.0384877352001751,0.0097532152778841,3.91041827201843,0.201785588264465,-11.2749969482422
222.027618,0.12601288971445,0.0161650174840906,0.0068115321667796,1.81481258869171,-0.606842458248138,-10.6140454292297
222.047618,0.0197223235645517,-0.0251268373071859,-0.0048191924876315,2.80779320597649,-0.885405963659287,-8.57558832168579
222.067368,-0.12008282774227,0.0249542625681684,-0.0190027743397569,4.41222556829453,1.39624547958374,-11.9595296859741
222.087618,0.0750150831220439,0.0120066238496938,-0.0017328579121938,2.72441260814667,-0.0609851837158203,-9.63356695175171
222.10776600000003,0.0337548290463785,0.0348864230145937,0.0008259820475464,2.95338878631592,-1.10426760911942,-7.81860452890396
222.127637,0.0082988789893141,-0.0031660475764569,-0.0064187153731855,3.02674769163132,0.133997143059969,-11.6286653518677
222.14763500000004,-0.0107648249276244,-0.0164564492254507,-0.0230038925635495,2.2921235024929,1.02113285213709,-8.86816730499268
222.167644,0.059560085480191,-0.0016246211232323,-0.0158868607727313,4.93059587478638,-0.233276581019163,-8.47702178955078
222.187652,-0.0103853029158101,0.0012893437026229,-0.0039588136308518,1.93345261365175,-0.588590334355831,-8.37694072723389
222.207789,0.0164926334190166,-0.0361959254418796,-0.0051319087162763,1.90921570844948,-0.0748104929924011,-9.00253601074219
222.227014,0.057657934553744,-0.0438206209403808,-0.0184821934384662,3.57455434799194,-0.134062147140503,-9.40374174118042
222.24827600000003,-0.0405099447472944,-0.0612184353623705,-0.0230342774573046,3.40173292160034,0.896667754650116,-8.27487707138062
222.26763700000004,0.0635421808027736,-0.065891815839203,-0.0107601619691034,2.89299165010452,-1.16280036568642,-7.65890045166016
222.28763300000003,-0.0292093649360861,-0.0863130968294907,-0.0082986075244166,2.40629351139069,-0.499140322208405,-10.2706771850586
222.30751400000003,0.0536344950148336,-0.0749121951443822,-0.0126687863302308,2.19877259731293,0.085374054312706,-11.1569078445435
222.32763,-0.020703306564682,-0.0599690665525674,-0.0237181855366911,4.70705499649048,0.925922858715057,-8.65381269454956
222.34763100000004,-0.005591715746543,-0.0596772129664745,-0.0189916485992003,3.27247532606125,-0.569166713953018,-9.15029935836792
222.36763,-0.0029581085128417,-0.0846830137401986,-0.0047768547179903,1.33126350641251,-1.48087430596352,-10.7287333488464
222.387636,0.025804023567725,-0.0464271707559814,-0.0092775872355173,3.14439444541931,0.327985206246376,-12.3276189804077
222.40755,0.025631394145131,-0.0343743158483544,-0.0270266008575781,4.15640821456909,0.286676037311554,-10.5783498764038
222.427656,0.0111780426751871,-0.0226726489296297,-0.0173651683527308,3.3451078414917,-0.0570553541183472,-9.22171669006348
222.447714,-0.0236431258180406,-0.0090647112924572,-0.0076310225074008,2.43870934247971,-0.974327623844147,-10.246466255188
222.46765700000003,-0.0116884661613304,-0.0192474816873686,-0.013085265266626,2.13324611783028,-0.725466391444206,-13.2079395294189
222.487646,0.0833001809031866,0.0357585602791607,-0.0278492958540379,3.44468426704407,0.848977398872375,-8.90474758148193
222.505609,-0.0656015644108829,0.0129828634638351,-0.0216856398467178,3.51457295417786,0.0458494260907173,-8.55284490585327
222.52799,-0.0167128097970791,0.0242105369293511,-0.0092912570051882,1.99462897777557,-0.995015306770802,-9.94205703735352
222.54762900000003,0.0225791188861257,0.0231603899759975,-0.0094935375318569,2.91819396018982,-1.11608856320381,-10.8609987258911
222.567386,-0.0340079877288968,0.0045293376631943,-0.0241439154073454,2.93999247550964,1.17908982634544,-9.25663213729859
222.587629,0.0171157127662586,0.0064755009975763,-0.0296129231021001,3.93123641014099,0.517339667677879,-8.09485387802124
222.60778500000004,0.0246430313477947,0.0258230167598924,-0.0209846463454787,1.8713559627533,-1.26149872541428,-7.02210788726807
222.627628,-0.0790949175256217,-0.0468501591093237,-0.0142559979690237,2.36876809597015,-1.11354416385293,-8.4093695640564
222.64763900000003,0.0476725813980774,-0.0160882098735687,-0.0240651239488706,2.80471837520599,0.881685134768486,-9.44988670349121
222.66767,0.0357855569217038,-0.0589883360201181,-0.0271731526057842,3.65862901210785,0.18392658829689,-6.56406621932983
222.687654,-0.0089129760264892,-0.0392173724795635,-0.0170181485070003,2.79848442077637,-0.991596883535385,-6.27013554573059
222.707789,-0.0535986784558749,-0.111415812761319,-0.013559917822639,2.11175161600113,-0.989354157447815,-8.9937273979187
222.727784,-0.0049397486626405,-0.0719426676769366,-0.0274242830247391,2.69252903461456,-0.376145267486572,-11.5563970565796
222.747404,-0.0496488003411286,-0.0476736203860303,-0.0294472418078736,4.32358539104462,0.925801399350166,-9.32833604812622
222.76765,-0.0216390212692406,-0.054145493862157,-0.0176594890913516,2.31812003850937,-0.15644950941205,-9.96600770950317
222.787651,0.0118523440811607,-0.0466194486267586,-0.0149020770864925,2.0088371515274,-2.27149243354797,-9.99467763900757
222.807798,-0.0529881912449229,-0.04865234153377,-0.0199075631145691,3.87874839305878,0.186689847707748,-11.5086696624756
222.825574,0.0199606743606686,0.0213114432103849,-0.0280823903985016,3.28763909339905,1.59848354160786,-10.6639575004578
222.84824200000003,0.0047285404632459,0.007256956351171,-0.0182364543230276,3.15485401153564,-1.70431885719299,-10.830846118927
222.867631,-0.0324818630897027,0.0451884873774179,-0.0128691533459927,3.20744180679321,-1.63661222457886,-10.7130253791809
222.887631,-0.0557589461016213,0.0553066409005245,-0.0174903253291883,1.8384556889534,0.911703558266163,-11.6216230392456
222.907785,0.0590295782077817,0.0910715901625651,-0.0166358866349521,4.25017938613892,-0.222404426336288,-9.30318069458008
222.927387,-0.0090279598455576,0.0830771973756841,-0.0151982613277711,3.07698659896851,-0.856285279989243,-8.17030601501465
222.94608600000004,-0.0607599380747778,0.0494771564657196,-0.013448782685762,1.86161552667618,-0.882534179091454,-8.42827577590942
222.967628,0.0400358800397284,0.0944207243895322,-0.0154406800138361,3.21624677181244,-0.523633801937103,-10.0167625427246
222.98765200000005,-0.0086318446824417,0.0549656786220589,-0.0180570441369517,3.1001570224762,1.00787993073463,-7.86212072372437
223.007807,-0.0132681292176791,0.0498811549410506,-0.01029177695582,2.74749939441681,-0.575981068611145,-9.15589656829834
223.02765800000003,0.103868410156791,0.0873188419023803,-0.0105648161958148,3.12762924209237,-1.26404348611832,-6.15744642019272
223.04764900000004,-0.115369464102023,-0.0418065780399356,-0.0104376906106045,1.86731572151184,-0.324473091959953,-8.38786497116089
223.067647,-0.0131399838192766,0.0609950724823516,-0.0090368337353733,3.53034007549286,0.997056746482849,-10.8474571228027
223.08747700000004,0.113049109398449,0.0886889186115542,-0.0137614599434813,3.0752965927124,-0.565252520143986,-7.06664600372315
223.105587,-0.104526258789649,-0.0204716990110648,-0.0078659701829891,2.34160242080689,-1.08869302868843,-8.30905532836914
223.128001,0.0227079748140847,0.0593718073224354,-0.0158558819940306,3.25569343566895,0.810432785749435,-10.9681735992432
223.147157,0.0758470097596395,0.104523599889515,-0.0097881004997834,3.21168496608734,0.617956703901291,-7.52174439430237
223.16763100000003,-0.0739970515254063,0.0562972590994832,-0.0079398389655454,2.51948255300522,-1.13492258787155,-7.96049633026123
223.187384,-0.0039005771421356,0.081759933934463,-0.0098542599337317,3.49449956417084,0.038383486866951,-13.1801685333252
223.207768,0.229123388105388,0.142057824431873,-0.0231044454814784,3.39748313426971,-0.481638806313276,-7.79048633575439
223.22763000000003,-0.0836115074055496,0.149688018799711,-0.0104937148224154,4.04694526195526,0.251989841461182,-7.94764270782471
223.24738,-0.0924093166242059,0.143308806643907,-0.0005736625493125,2.57506380081177,1.19667365550995,-14.2524467468262
223.267635,0.220697064661697,0.256433413466344,-0.0158199668389264,2.7694916844368,-1.81788435615599,-9.00953388214111
223.287636,-0.0686958864281385,0.225303014488972,-0.0217813417869456,4.00044627189636,-0.100797653198242,-8.19156732559204
223.307845,-0.174502235189832,0.192272151017183,-0.0148794073115281,3.33739404678345,0.944709724187851,-12.5656385421753
223.327649,0.159404567496765,0.266492371662837,-0.0110695786298038,2.10668938159943,-0.593203204870224,-8.07920980453491
223.34765700000003,-0.0852872579095039,0.219520713458543,-0.0175387200576361,3.47771434783936,-0.560197019577026,-9.44903841018677
223.367655,0.0495413360464567,0.221998234560656,-0.0205495000103019,3.14618988037109,0.305904734134674,-10.9251110076904
223.387652,-0.0223666881644355,0.202568770665314,-0.0183347978824319,3.50016279220581,0.135169795155525,-8.65224657058716
223.405613,0.0395273353250337,0.189511531382622,-0.0212418920927058,2.28935790061951,-1.07796049118042,-9.47955684661865
223.42799,-0.0312634202096461,0.176047164114293,-0.0296042475882024,3.43099055290222,0.618574655056,-11.1614177703857
223.447634,0.0610000105750144,0.185036038104213,-0.0194309207036951,3.48352494239807,0.319003462791443,-10.1910077095032
223.467638,-0.0188593367147042,0.157903696964156,-0.014405801496226,2.87590413093567,-1.79109219312668,-9.76196956634522
223.48738000000003,0.048375003300617,0.15756025001548,-0.0257208780182459,3.77608635425568,-1.13490463495255,-10.0126789093018
223.50777700000003,-0.0215601505373343,0.131672399129011,-0.0333193309371989,3.6825915813446,1.73863866329193,-10.0788455963135
223.527665,-0.0242829292849335,0.146698228226479,-0.0167112358688148,3.01753783226013,-0.1812728472054,-10.9395614624023
223.547638,0.0211152851729329,0.146891360202641,-0.0170188636545523,3.81653966903687,-1.49493441730738,-10.9354328155518
223.567405,0.0369340945724148,0.107397290956683,-0.0275592641069254,2.91637859344482,-0.497100546956062,-10.506559753418
223.587651,-0.0339135790197437,0.106741935752877,-0.023194957453176,3.81076292991638,0.626652280986309,-11.0662431716919
223.607795,0.015829010105794,0.116019597971178,-0.0109631475824929,3.62943620681763,-0.397160357236862,-10.9050861358643
223.627648,-0.0018645134754096,0.063224285761285,-0.0159195549823277,2.90729646682739,-1.2029750585556,-11.0867043495178
223.6474,0.0175669909932187,0.0699251980832874,-0.0242538703495451,4.61189780235291,-0.0528111755847931,-10.8557834625244
223.66740600000003,-0.0174683408743705,0.0654228987263135,-0.0097953663136904,3.78175179958344,0.428710231184959,-11.334888458252
223.687654,0.0323251529794475,0.0470709010836419,-0.0043366161097625,2.48775217533112,-2.06036477386951,-10.2741010665894
223.707763,-0.0110366853932945,0.008799658399425,-0.0123566724790569,4.21069941520691,-0.453738476336002,-10.1458270072937
223.728032,-0.0332917439014103,0.009688136495566,-0.0074517999114402,3.44624161720276,1.46128856390715,-11.6078777313232
223.74739,0.0969187655628961,0.0249512165035789,0.003748617105363,3.04657266139984,-1.38467738628387,-8.62618246078491
223.767388,-0.0101011492980797,-0.0406828404860075,-0.0032370219170675,3.82498383522034,-1.00839186906815,-9.09917030334473
223.787602,-0.0565306061116279,-0.0386196409821801,-0.0074182403520007,3.51421837806702,1.02708535194397,-10.9861694335938
223.80754,0.262237957219045,0.034252040530669,-0.0005688906822941,3.82961754798889,0.90094245672226,-7.33834452629089
223.82716,-0.0870259670827425,-0.0680323033582406,0.0121137284400608,3.63037085533142,-0.793606051802635,-5.72053229212761
223.847601,-0.156856750302015,-0.0473883745171232,-0.0092871005503352,3.65943313837051,-0.836413359642029,-10.5793627738953
223.867659,0.0840315997190495,-0.0181261506842559,-0.003708842363902,3.30129842758179,1.08401389122009,-9.49641828536987
223.887613,0.0035997200294583,-0.0537898327389454,0.0057899662001526,2.94434013366699,-0.75588900744915,-6.33385047912598
223.907809,-0.107842075686482,-0.10501637324527,-0.0001666901884579,3.22842820882797,-0.789836010336876,-9.86083459854126
223.92762,0.03884140578794,-0.0424716273872042,-0.0089278509801667,4.73240728378296,0.248218512535095,-10.139674949646
223.946219,-0.0005807451451272,-0.0476951541156118,0.0095101577882213,2.31615735888481,0.238840737938881,-8.70490875244141
223.965604,-0.0066785577469604,-0.0369305981080864,0.0079746315390259,3.73428564071655,-1.11008054465055,-6.90312929153442
223.988217,-0.0018288255767271,-0.0707092510843083,-0.0085995688850593,3.94891138076782,-0.271828170120716,-8.47954750061035
224.007783,-0.0230383795836693,-0.0823126187112859,0.0138179655660635,2.88922164440155,-0.270789104700089,-10.0971090316772
224.02738900000003,0.0506234172023839,-0.050857587486425,0.012110702082864,3.56477056741714,0.466897201538086,-9.12804880142212
224.047602,0.0263035261991793,-0.0864854426550085,0.0018668991943863,3.03448441028595,-0.681423780322075,-8.48815517425537
224.06759700000003,0.0182074582974246,-0.0736935572025637,-0.0024147577609072,3.57325258255005,0.205647465586662,-9.03953008651734
224.087603,0.0701906612806872,-0.0527809071136755,0.0096611200716534,4.16108083724976,0.688223133981228,-7.56800470352173
224.107484,-0.0189944859903151,-0.0804826183845664,0.0087509018509386,3.09812440872192,-0.790594184398651,-9.05438108444214
224.12759800000003,0.0183001372537931,-0.0538182285176065,-0.0008321449428366,3.2818603515625,-0.598238891363144,-9.05911350250244
224.147602,0.0053107020550389,-0.0741774552481507,5.26122288735387e-05,3.23815530538559,0.914964188635349,-8.84528398513794
224.16771800000004,0.0420320184815907,0.0092858744605132,0.001535694531392,3.58087220191956,0.893967559188604,-7.23127069473267
224.18762200000003,-0.0915681076862305,-0.0842877658207295,-4.81039408364026e-05,4.2479142665863,-0.512515354156494,-8.4080864906311
224.207757,-0.0017128877541386,-0.0411557535243116,-0.0069887596999195,3.02395015358925,-0.687379913032055,-11.3481641769409
224.227623,0.0983531734162696,-0.0357680073700369,0.0035280149987911,2.57503607273102,0.507889810204506,-8.0370680809021
224.24740000000003,-0.0641795686049216,-0.0263077813389498,-0.0049153937114014,3.88296689987183,-0.139085404574871,-7.66551017761231
224.268035,-0.119338166209429,-0.0313785867067768,-0.0111087491147858,3.28546144962311,-0.284869769215584,-10.9489452362061
224.288003,0.0206999715766938,-0.0129816822038933,-0.0024010534663105,3.15378754138947,-0.152057981491089,-9.69421310424805
224.307745,-0.0411934941876405,-0.0302395933375302,0.0021594172872814,3.68390293121338,0.140232241153717,-9.29919672012329
224.327599,-0.0453215773192514,-0.0384223738564546,-0.0086610815761792,3.36472880840302,-0.914249086380005,-10.3382707595825
224.347602,0.0604769884426315,-0.0187345696250452,-0.0103781739292071,3.53115363121033,0.400384525954723,-8.29557037353516
224.367607,-0.0815385776576299,-0.0291588152959647,0.0078688416033858,2.92556385993958,0.208187065273523,-8.64714403152466
224.387424,0.0184681254374251,-0.0075015871772844,-0.0008971386371546,3.48958721160889,-1.4828123152256,-10.7514432907105
224.407494,0.0001833653947148,-0.0105305678837098,-0.00828334417827,3.50870590209961,-0.583620232343674,-10.2101337432861
224.427632,-0.0468323806737478,-0.0273065353178047,-0.0018221015015902,2.13792798519135,1.42050564289093,-9.52019443511963
224.447402,-0.052577852492971,-0.0256398721116496,-0.0031389309991893,4.21894159317017,-0.44264240860939,-10.0432012557983
224.467402,0.0010056712145525,-0.0049053300987093,-0.0096770041266971,3.51372489929199,-0.776174360513687,-10.9361824035645
224.487408,0.0332831384582427,0.0256231596507266,-0.0005581819298999,2.90405902862549,0.0898027539253235,-6.75099921226502
224.50780100000003,-0.093637858211501,-0.0591986805396935,-0.0027883176945805,4.45278487205505,0.714907366037369,-10.4933267593384
224.527609,-0.0455935747897695,0.0087476081567443,-0.0150831047583134,2.46409217119217,-1.55943732261658,-10.6626417160034
224.54823700000003,-0.0247061624715614,-0.0265008892874798,0.0003878218276445,2.61118268966675,0.475541591644287,-9.34679861068726
224.568214,-0.0626113409851854,-0.0133115752008194,0.0057397536866474,4.14009470939636,0.21954745054245,-10.0549666404724
224.587596,-0.0089761452630516,-0.0519968189570775,-0.0020192149407221,2.39542384147644,-1.75403237342834,-10.3764739990234
224.607499,-0.0561318449499149,-0.0229136085584499,-0.0069078682352777,4.15564069747925,0.683576822280884,-8.84226570129395
224.62760100000003,-0.0961579088142165,0.0139585489776999,0.0066294864128211,2.92529453039169,1.0001066505909,-8.92156162261963
224.647603,-0.0269399628976938,-0.0054168173106139,0.0082436742026112,3.05986220836639,-2.256640625,-10.7802978515625
224.667389,0.0429025645073458,-0.0257074829092659,-0.0015513107168058,3.87053949832916,-0.125721526145935,-9.58145437240601
224.687627,0.0244691001720103,-0.0118886406009474,0.0100866245796896,2.36463824510574,0.83809329867363,-6.55881474018097
224.707763,-0.0288402223878812,0.0039232644347825,0.0127136910747091,3.44173581302166,-0.0901417970657349,-7.58613433837891
224.727803,-0.0379596197128319,-0.0110097810736727,-0.0008388067369899,3.45585500597954,-0.931129295378923,-9.6889253616333
224.747618,0.0014221460674338,0.0148528661287301,0.0053612110671567,3.17612055540085,0.599747347831726,-8.85357675552368
224.76762,0.0666219566336007,0.0455130767776031,0.0059327166704365,3.85607476234436,0.62494785785675,-8.87905779778957
224.78762,0.182279503403832,0.0349477479084636,-0.0104816541939178,3.70860337018967,-1.19712924957275,-6.88928108215332
224.807134,-0.0639248542219979,0.027705247003901,0.0029774426192323,2.84667756557465,1.17428963780403,-7.71151151657105
224.827604,0.0484214575906393,0.0691829391361104,0.0044177302757107,2.91928343772888,0.342313376069069,-7.80895690917969
224.847603,0.105013222903125,0.0375484971925413,-0.0032896942446119,4.00137281417847,-0.928769469261169,-7.82498903274536
224.86760500000003,-0.0081428646151248,0.046685100166277,-0.0074055380792,3.74731879234314,-0.186868619918823,-9.19043607711792
224.887601,0.0852515685904689,0.0629107200729921,-0.0049914363880523,2.99845564365387,1.44381532669067,-9.67637939453125
224.907797,0.0708856597101772,0.0292297984989839,-0.0077285575162721,3.65955449342728,-1.26998347342014,-8.29705324172974
224.92760300000003,0.0132524102934247,0.0473580755547026,-0.0135333131974233,3.10954122543335,0.241082000732422,-10.1353700637817
224.94599600000004,0.0443910100318252,0.0680629896034798,-0.0102596246699354,2.8711140871048,0.950311177968979,-10.4603157043457
224.967599,0.0589551866466834,0.0529175361581578,-0.0096263200857076,3.61115539073944,-0.85310023277998,-6.91162934303284
224.987624,0.0585364070349256,0.0462293513793967,-0.0150173751585815,3.9408194065094,-1.59870471954346,-8.68965864181519
225.007814,-0.0808819978731268,0.0505087496485023,-0.0057123475386851,3.51760256290436,1.19206917285919,-10.5303874015808
225.027709,0.0410808292126123,0.0757949248958632,-0.0007844745942328,3.41174931526184,-0.609600251913071,-10.785849571228
225.04762600000004,0.0941290341439924,0.0576033688665458,-0.0036040502703744,3.34347705841064,-0.694423557817936,-8.94088306427002
225.06761900000004,-0.004360034114659,0.0807440969601914,-0.006431008184953,2.92809715270996,-0.356098273396492,-9.9451099395752
225.08824600000003,-0.0134085781840613,0.0744810395266603,0.0021725594458825,4.541916847229,-0.0919661819934845,-9.63292541503906
225.10836900000004,0.0238728598081688,0.0591223441607491,-0.0014239973195501,2.37115795612335,-0.0118764653801918,-10.1653549194336
225.127602,0.0059899802582846,0.0629952162002834,0.0036864182803529,3.81535732746124,-0.799125450849533,-9.90713109970093
225.147597,-0.123076604653536,0.050111059846946,0.0031288972490415,3.87838938236237,-0.280492204427719,-10.4388077259064
225.167602,0.109406687976129,0.0741628833770122,0.0001588558257002,2.76592747867107,-0.406573915481567,-9.26759157180786
225.187607,-0.0732517555683877,0.0916557580024557,0.007306574003238,4.48472249507904,1.01214835643768,-8.47544317245484
225.207292,-0.115729369446044,0.0768894865128545,0.0115840892398372,3.18487668037415,-1.08360060453415,-12.0812256813049
225.2276,0.0464723779763897,0.0816175340249639,0.0029239783859123,3.96863417625427,-0.728468132019043,-10.7002321243286
225.247636,-0.0931588370650507,0.0620599877001863,0.0009455788686705,3.18935979306698,0.20121043920517,-10.0586236953735
225.267629,-0.0573359950581258,0.0939528886384492,0.0098075280831319,3.55206637382507,0.697156737744808,-9.73973646163941
225.28718300000003,-0.133564565671811,0.0527420881641214,0.0083501363497268,4.29155149459839,-0.052236196398735,-11.7940366744995
225.307294,0.0901764211994278,0.0610907791570882,0.0040858992353546,3.35548458099365,-1.8542357981205,-9.01206684112549
225.32761900000003,-0.197919662653851,0.0489027528400218,0.016580689364282,2.8720930814743,1.28344863653183,-9.94152393341065
225.34740700000003,-0.0364857978727715,0.0605400864248366,0.0092903712969572,4.04859466552734,-0.895629245042801,-11.2651704788208
225.367405,-0.0159383488516752,0.0312151632554039,0.0091254578216929,3.38326458930969,-1.59833283498883,-9.23326396942139
225.387621,-0.226320976488331,0.0423435300440659,0.0210695888777671,3.18824651241303,0.77342432141304,-11.8438808441162
225.408155,0.0929624814802196,0.0346954826721389,0.0254755246469105,4.25516669154167,-1.1829131603241,-9.45762548446655
225.427996,-0.160910615688182,0.0570900392797289,0.0249031331874463,3.54238095283508,-0.135598421096802,-10.0922159194946
225.447608,-0.0485882050962442,0.0650662093565659,0.0282980780479664,2.90929365158081,1.17013796567917,-11.6282747268677
225.467605,0.11149291802449,0.0315699519565997,0.0311192875587037,4.85041813850403,-1.10438256263733,-8.24275436401367
225.48760700000005,-0.168947129032469,0.0428991109199125,0.0333525705030259,3.22642407417297,-0.648485124111176,-8.65599784851074
225.507729,-0.0725269311539047,0.0230658289340242,0.0357571138867269,3.42875895500183,1.11505402475595,-10.7011533737183
225.527605,0.058786061352404,0.0342972262090624,0.0323328008682133,3.98911809921265,-0.48588599562645,-8.84243316650391
225.547601,-0.106439155157234,0.0491259799875919,0.0372942005708365,3.07525269985199,-0.386248096823692,-9.65590438842773
225.567406,-0.0354286043132677,0.0638255055263784,0.0361596796996996,4.09986696243286,0.973073568940163,-9.90664529800415
225.58762,0.020988300439359,0.0134734419013179,0.0340748505924879,3.32479522228241,0.156639754772186,-7.87829418182373
225.607774,-0.0758558270128939,0.041790925043716,0.032644626506165,2.79968745708466,0.148329120874405,-9.8309591293335
225.627618,-0.017234536331133,0.0670869349902693,0.0270301306706028,4.05512924194336,1.46794867515564,-8.32200717926025
225.647622,-0.0277677931791073,0.0041005941741309,0.0255315386203461,3.36105132102966,-0.218775327503681,-8.43923501968384
225.666083,0.0421908795383684,0.0341365165485343,0.0113280497862672,3.50033941268921,-0.542861723899841,-9.38314895629883
225.68825500000003,0.0358709934999839,0.0506908629431877,0.0216095139166889,3.86246657371521,1.22991566061974,-8.06466865539551
225.707721,-0.022949408901716,0.012995335166058,0.0272458874438958,2.95935640335083,-0.256302392482758,-9.67466764450073
225.727712,0.116820181391259,0.052045303197332,0.0173528891674714,3.76566178798676,-1.10081913173199,-9.3770637512207
225.747385,0.046484706163815,0.0442528286584256,0.018532331294686,3.37399954795837,0.896090400218964,-8.97889404296875
225.767608,0.172347109516533,0.0255176341965836,0.0212361732795443,3.29696497917175,0.836221474409103,-6.26763653755188
225.787602,0.138633451285098,0.0400707982256451,0.0161101696201687,4.08255729675293,0.171208548545837,-5.1126405954361
225.80775,-0.137358170153626,0.0430714191060854,0.0116927443818312,3.44106206893921,0.550225085020065,-8.15188026428223
225.827611,0.118389185529617,0.0673646489658757,0.0066087697854792,2.97998542785645,1.4117241576314,-9.19942722320557
225.84760800000004,0.0642968339245921,0.0616143209018103,-0.0066917414601231,4.07439289093018,1.74744803383946,-7.53437767028809
225.867629,-0.1134511110947,0.0664808688636207,-0.0097572242823792,3.09541757106781,0.741834735870361,-8.05111093521118
225.887475,-0.0567339395338691,0.0481042367432016,-0.0167349683042761,4.41512560844421,0.819148541241884,-6.94517288208008
225.907525,-0.121369811632557,0.0509704804280511,-0.0128793715995779,2.62936193943024,-0.566953384876251,-9.91743402481079
225.92762400000004,-0.0344074271089934,0.0647324869705717,-0.0104864102447177,4.21890640258789,-0.0180388517677784,-10.1903072357178
225.94599600000004,0.0511342579762952,0.0585675238837388,-0.0107726049091854,3.94236259460449,-0.648092246055603,-8.30721731185913
225.96803800000004,0.0150355282676475,0.0444615243853167,-0.0113742977700692,3.97677488327026,-1.79332954883575,-10.2464078903198
225.98823400000003,0.0952192127894759,0.0647349870279356,-0.0074485403205044,3.87263526916504,1.59557946920395,-9.13314170837402
226.00773400000003,0.0252131265704982,0.0326692816382071,-0.0017636510389688,2.82172899097204,0.374107766151428,-11.0063038825989
226.027602,0.129879931147234,0.0496388032482849,-0.0024385916332191,4.57027997970581,-0.845016360282898,-12.342621421814
226.047384,0.15428566702092,0.059920272705029,-0.0121853277654217,3.9811363697052,0.81947205811739,-7.81061072349548
226.067383,-0.075447592099102,-0.0128998793611057,-0.0194066327919906,3.52465526461601,0.863858959078789,-11.3923819541931
226.087604,0.294233203234766,0.0452053748968032,-0.0216232376005786,4.07083139419556,0.1446668446064,-8.9281911611557
226.107768,-0.0020814567166041,0.0214142125886015,-0.0130519257434822,3.92276126146317,0.676775658130646,-7.7282420873642
226.127627,-0.0640918254331429,-0.0136836740946724,-0.0153249772596087,2.95949844792485,0.106185573339462,-10.9490839004517
226.147623,0.141324744454422,0.0298930180621745,-0.0299267036187291,4.30879492759705,-0.258302301168442,-8.21285305023193
226.167624,-0.061759442946726,-0.0076787771746469,-0.0222863706554165,2.82497805356979,1.09591242074966,-6.91004829406738
226.18762500000005,-0.159853823141572,-0.0024746041712508,-0.0264024228675725,3.72383024394512,0.4987409055233,-9.87734336853027
226.20774800000004,-0.0296160530858579,0.023538571530012,-0.0277061650251544,4.45454959869385,-0.832314360141754,-10.9395523071289
226.22740800000005,-0.06542303697397,-0.0124447882196887,-0.0250520685241002,2.98745441436768,0.95047245323658,-10.873595905304
226.247618,0.0844213125242981,-0.0415325498794183,-0.0244076095555377,4.86015646457672,0.3269236728549,-6.33812255859375
226.268038,-0.157386500644833,0.0251610661486235,-0.0292549381340235,3.9840606212616,-0.115688428282738,-8.4216160774231
226.288228,-0.132771871378514,-0.0294509844666588,-0.026433789935175,2.39736552238464,0.303246659040451,-13.0658164978027
226.307723,0.0928629850679261,-0.0114412468017201,-0.0277272851953935,4.29583473205566,-1.09457021355629,-9.03898887634277
226.327603,-0.151247025904407,-0.0096986677593633,-0.0119089490396553,3.90204730033875,-0.980007395893335,-10.0877265930176
226.347603,-0.107266370307594,-0.049812542913189,-0.0059357665226331,3.37189206331968,0.581068754196167,-14.881142616272
226.36760300000003,0.344189406768371,-0.014077732587172,-0.0142896333989665,4.94572143554688,0.207993918657303,-5.30843195915222
226.387603,-0.178788579160869,0.0075004542685135,0.0060529169564889,2.86309750080109,-1.68123106956482,-6.44880385398865
226.407742,-0.268715202705565,-0.0603086802062056,-0.0009605398202614,3.99711513519287,0.836583399772644,-13.8437503814697
226.42762600000003,0.352469335412822,-0.0433744317074545,-0.0054376110956536,3.7683069229126,0.144476039707661,-8.97416429519653
226.447623,0.0642421851467647,-0.0188207054902728,0.0017849698514422,3.51754021644592,-0.436026638746262,-4.31827850341797
226.467624,-0.29229207735855,-0.0651093298422272,0.0035401532954257,3.65716390609741,-0.0164343595504761,-9.37733879089356
226.487406,0.118044808723416,-0.0276889673954437,-0.0093758601573452,4.15920667648315,1.57053042054176,-10.1457653045654
226.50753200000003,0.123358595074203,-0.0150323594054352,0.0095935218648714,3.0927267074585,-1.51475594639778,-7.14118022918701
226.52700600000003,-0.118249936051036,-0.0135537079225538,0.0012603464785974,3.60645613670349,1.10196941047907,-6.96447725296021
226.54823700000003,-0.0428979841068217,-0.0261538621032607,-7.80230366025557e-05,3.5733814239502,0.227557349950075,-9.27009792327881
226.567603,0.0520901545898145,-0.0256809717905988,0.0020237901124805,3.84421458244324,-0.10897634960711,-8.9338171005249
226.58739000000003,0.0115687438091445,-0.0379832622740006,-0.0103334922392739,3.1611526966095,1.20345315933228,-7.55348453521729
226.607723,0.0186396566907064,-0.0250378306133751,-0.0025021232668383,3.75155066251755,-0.0425864517688751,-7.20165452957153
226.627383,-0.0970323585016462,-0.0147854325201051,-0.0007834197604709,3.80786361694336,-0.086794450879097,-10.9728539466858
226.647603,0.154547714270231,0.0069730322387539,-0.0107694292374178,2.98511742651463,0.577722191810608,-9.72053518295288
226.667665,0.0778471606976972,0.0054560857999277,-0.0093248160615861,5.19907898902893,-1.13122634291649,-6.96670694351196
226.687409,-0.250683187786031,-0.0601614391135204,-0.0003209693133937,3.55283269882202,1.02334376573563,-11.1537474632263
226.707758,0.141866090082704,0.0104901548860785,-0.0137232336379138,2.77679514884949,0.561575090885162,-13.3125080108643
226.727525,0.0772101834366421,-0.0227322269229159,-0.0103914323588366,4.18310794830322,-1.28189052343369,-8.94616451263428
226.74778300000003,-0.152181094301898,-0.0354182974060054,-0.0038208860752079,3.81408362388611,1.459031021595,-9.48442192077637
226.767401,0.0026589457033144,6.16897025670582e-05,-0.0100653951310696,3.65008723139763,-0.114878594875336,-12.3248896598816
226.78825,0.126381150933844,-0.0413172514065757,-0.0027017474529672,4.44514269828796,-2.25118787288666,-10.6514987945557
226.808158,-0.0809689319765356,-0.0639714744565531,0.0026987607916675,2.97258583307266,1.64914128780365,-11.658445930481
226.827599,0.163289275512355,-0.0186475891234503,-0.0171181384918346,3.89407620429993,-0.36877649910748,-8.80532655715942
226.847603,-0.0592965321836351,-0.0398489552708996,-0.0029170756496478,4.18021821975708,-0.917616221308708,-9.59557905197144
226.867381,0.0318261400145642,-0.0873273925436088,-0.0064479858671399,2.43581289052963,2.26833057701588,-13.0790502548218
226.887381,0.231125471729113,-0.0495269937989942,-0.0091592187161185,4.21828124523163,-2.01671996116638,-6.60220718383789
226.90772200000004,-0.29642282832668,-0.0590413045207777,-0.0132900225332028,4.07589365243912,1.97146359682083,-9.43102741241455
226.9276,0.0761078423115407,-0.0039706956906926,-0.019685881340257,2.46889643669128,1.85007421821356,-12.6433082580566
226.94600000000003,0.0705459559825095,-0.0501137282160972,-0.0268638087973376,4.67606978416443,-2.29326204061508,-7.27807807922363
226.967153,-0.243560138257003,-0.0608277188412595,-0.0271202146427062,2.63086344003677,1.04345827102661,-9.38796987533569
226.987149,-0.0024470606929431,-0.0363295190762666,-0.0286223062051313,3.80753526687622,1.25053092241287,-8.80556488037109
227.007765,0.0644448417931681,-0.0324177744115342,-0.0268031999831262,3.79249086380005,-1.11361333429813,-6.39803938865662
227.027617,-0.150881066366458,-0.0853667833352032,-0.029723050617145,2.20013822317123,1.01280500888824,-8.60194110870361
227.047617,0.108893377504891,0.0008755219353067,-0.0417761891218481,4.62661607265472,-0.184826985001564,-5.08503184318542
227.06761800000004,-0.239587870235943,-0.0423247982559647,-0.0340723976434863,3.03541568517685,0.327418202161789,-6.93850746154785
227.08740900000004,-0.0771809094066014,-0.0423392382118522,-0.0386267119710506,2.09861769676209,0.370681542158127,-12.0856800079346
227.10776500000003,0.179669574661782,-0.0068224617211284,-0.0474207651855251,4.55602312088013,-0.715064978599548,-7.28653078079224
227.12805200000005,-0.0343817589696154,-0.0259758535685106,-0.0257538969559636,3.22055583000183,-0.888872566819191,-6.68802452087402
227.14823,-0.146259519646892,-0.0663116114765462,-0.0346907164421451,2.5005588799715,2.12544331550598,-11.4813076972961
227.16760500000004,0.249145798093359,-0.0263769152280423,-0.0425778148440382,4.19594311714172,-2.1360119342804,-6.89471483230591
227.187604,-0.105681905985886,-0.025361138677939,-0.0355449685967351,2.86958022117615,0.222419929504395,-6.59698152542114
227.207745,-0.0585209554920548,-0.0060541094165031,-0.0363906796974769,3.34634118080139,2.25817210674286,-8.9625114440918
227.22761000000003,0.163274972561316,-0.0216937803611228,-0.0460728353840016,4.28033499717712,-0.86914746761322,-6.60671634674072
227.247596,-0.146854797485098,-0.0130391038651534,-0.0465472530491976,2.59559211730957,-1.13168244361877,-8.26496305465698
227.26739300000003,0.0142872230013626,-0.0132057456728496,-0.0348624342350725,3.65271859169006,1.6575960278511,-9.57739133834839
227.287619,0.146330099336605,0.006391551587687,-0.0340369915664393,3.39462513923645,-0.786212313175202,-7.43779802322388
227.30778300000003,-0.177535024216761,-0.0601737130908201,-0.045452758662231,2.70292572975159,0.419343554973602,-9.19040632247925
227.32761700000003,0.108151101927752,0.0201999502798021,-0.0487195612017793,4.83271865844727,0.128969740867615,-6.96101789474487
227.34740600000003,-0.0300634082988386,0.0111233373199797,-0.0396555425087759,2.73713369369507,-0.0869546949863434,-6.34867172241211
227.36740000000003,-0.21772801064513,-0.0088203519904226,-0.0483441099206184,3.35341360569,0.753978657722473,-11.5222951889038
227.386118,0.0852049672939488,0.0143804042891133,-0.0525585329156042,3.57443406581879,-0.983275532722473,-11.0307685852051
227.408404,-0.0516649057452527,-0.0110366393354012,-0.0403163407406065,2.94350428581238,-1.64952414631844,-11.534545135498
227.427395,0.0059580194832804,-0.0143019407915415,-0.0430854858051366,4.18394303321838,0.955871105194092,-14.3829454421997
227.44759900000005,0.0959958556924347,-0.0407041250028828,-0.0380633863857334,3.85434002876282,-2.1616770029068,-11.541411781311
227.467598,-0.0854325184388016,-0.0410435753751492,-0.032311291994803,2.74283728599548,0.540397024154663,-14.0220729827881
227.487387,0.119485696817326,0.0135983514996913,-0.040397703274077,4.78516931533814,-1.53572779893875,-12.0026107788086
227.507494,0.0393850389533236,-0.0372007813740194,-0.0276990339080224,3.42742791175842,-1.50028840303421,-10.3256869316101
227.527602,-0.114956271802445,-0.0985013686308377,-0.0324064220063695,3.52751832008362,1.12799759805203,-14.4528331756592
227.547601,0.166321387977979,-0.0450996760412759,-0.0262934432341825,3.87800264358521,-1.76312845721841,-10.1488598823547
227.56759700000003,-0.100176586739279,-0.0562342005320637,-0.018608618434739,2.34064519405365,0.004957377910614,-11.9897212982178
227.587627,0.162708556762114,-0.0384826922381427,-0.0271140077016891,4.46306891441345,-0.341007822751999,-10.9462878227234
227.60758200000004,0.117425623036199,-0.0387147066044272,-0.0209126510376393,3.54228417873383,-2.33527422733605,-7.28833537101746
227.627414,-0.123375477977442,-0.0660919511007599,-0.0196729603923318,2.68945670723915,0.85194970369339,-9.43263378143311
227.64761700000005,0.174376980919219,-0.0408813364238976,-0.020432907996962,4.31602311134338,0.16876175403595,-7.71186199188233
227.667416,0.147106341345032,-0.0389695893583196,-0.0142054890456779,2.07675547599793,-0.401368641853333,-6.67349939346314
227.688261,0.0612013846207949,0.0147863110082101,-0.0261349543689768,3.63222687244415,0.831041088327766,-6.34579825401306
227.708136,0.169146676268035,-0.0245302430388127,-0.0253900494823839,3.14807505607605,0.286949998140335,-4.49042601585388
227.727748,-0.148380567746309,-0.0181413394618891,-0.0222515668078869,3.02647833824158,0.572276192903519,-7.46411724090576
227.74735,0.169337771872787,0.0546236773556405,-0.0345287995558535,3.92691206932068,1.41839454174042,-7.78313970565796
227.767602,0.136768599647398,-0.003815158081538,-0.0224909828684805,2.33123863637447,-1.10774609446526,-5.95919408798218
227.787349,-0.133620555277322,-0.0091030948428978,-0.0244279830937414,2.78842469453812,0.250636875629425,-7.52076644897461
227.807722,0.0281092634703654,0.0379442715893874,-0.0290617453194235,3.89397354125977,1.23527119159699,-7.14977684020996
227.827376,0.0666007192842692,0.0203465377735495,-0.0173853245769813,2.76389239430428,-0.509252083301544,-6.7431547164917
227.847621,-0.0623178513156051,0.0266218994260552,-0.0300487957109246,3.4146552324295,0.716072723269463,-7.52512226104736
227.867374,0.0037724487879647,0.0395423927348435,-0.0275210438378566,3.85818638801575,0.783101487159729,-6.44742374420166
227.88761900000003,-0.151018091572812,0.0211348633136607,-0.0217303381074317,2.25012730360031,-1.0773738026619,-10.8417749404907
227.907495,0.145003115238672,0.0932035063268983,-0.045760226658297,4.25722389221191,2.15965677499771,-7.68381309509277
227.927621,-0.230560016088294,-0.0039009105699168,-0.0214150342626012,3.06413304209709,-2.23652696311474,-10.3805065155029
227.946999,-0.0967984366017722,0.0196273072995587,-0.0344281902972701,2.64201493039727,0.84172457754612,-15.6317287445068
227.967624,0.0389087093751176,0.0290975969137472,-0.0451289291507059,5.11523187160492,-2.18253133296967,-11.9374685287476
227.988002,-0.143304349577337,0.0092144669419395,-0.0227147975390002,3.00454287528992,-0.352075409889221,-11.4383134841919
228.008391,-0.117907148619433,-0.0327173845433697,-0.0254460667699756,3.22909846305847,0.110326325893402,-16.8227222442627
228.027601,0.188758333530442,0.0189280817822627,-0.0232609967489639,4.79198441505432,-3.10757124423981,-10.6821157455444
228.04760800000005,-0.253769941690993,-0.0384904647628524,-0.0215590132787335,2.61205871701241,0.548986572027207,-12.6366704940796
228.06734900000004,0.1317122201355,0.0211712532216333,-0.0321606815889409,4.26638479232788,-0.730005222558975,-12.3587287902832
228.087349,0.150079603037919,-0.0290731209236813,-0.0090491306750407,3.5526983499527,-3.20491717755795,-8.85709438323975
228.107734,-0.342273536655818,-0.0710382967225247,-0.0145268805219042,3.10354554653168,1.62276421785355,-14.3728875637054
228.127347,0.488136168586123,0.0408807159665213,-0.0162087703521722,4.53663909435272,-2.65162887573242,-8.74017276763916
228.14761300000004,0.0337819852418676,0.0110875084512982,-0.0054845572419573,2.18871191740036,0.421365332603455,-5.4831045627594
228.167618,-0.19095152761344,-0.0167484581034318,-0.0241435548745014,3.73456109762192,-0.0285696148872375,-8.65448808670044
228.18762300000003,0.201757453877092,0.0113493755525503,-0.0063053710701234,2.83319673538208,-0.894919145107269,-9.46431293487549
228.20727800000003,0.090987416277778,-0.008675685360866,-0.0110102188973726,3.15498985350132,0.929756280779839,-6.10067806243896
228.227624,0.193739523479786,-0.008579192446969,-0.0106433162452739,3.64405303001404,0.11999783217907,-7.06453514099121
228.247545,0.0825913869029489,-0.0144152062428393,-0.0120607829609501,2.43414194583893,-0.496415829658508,-7.55662784576416
228.268037,0.0524262905100246,0.0273640785375779,-0.018066249205657,3.88684148788452,2.0945719242096,-5.95225481987
228.288232,0.0501279307955505,0.0414174031932477,-0.0032436192331293,3.52156956195831,-0.62226676940918,-7.18352527618408
228.307748,-0.0337520191154146,0.0060680916045725,-0.0059247967249596,2.11383121013641,0.119528430700302,-9.80346412658691
228.327355,0.191578539325317,0.0649859442822317,-0.0185575701324799,4.18085293769836,1.03701438903809,-5.97103157043457
228.34761100000003,-0.125789506831131,0.019594885738487,-0.0053267107016403,2.9239652633667,-1.19487502500415,-7.53182487487793
228.367611,-0.021813806076959,0.0569051753538022,-0.0203101329518743,2.23665993213654,2.45463745594025,-10.1755610466003
228.387364,0.0525118321943997,0.0411447836674567,-0.011707056091712,4.90718231201172,-1.0034928560257,-7.25809803009033
228.407774,-0.222137758640747,0.0077171061006924,-0.014014821950959,2.74177067279816,0.311282002925873,-11.5697068214417
228.42737900000003,0.0043263250039233,0.0934781610996533,-0.0285122004688269,4.44942660331726,-0.335735228657723,-11.5764259338379
228.44761800000003,-0.0668231566861834,0.0463187391419833,-0.012738741419872,3.10268700122833,-2.7189748942852,-9.11534357070923
228.46770000000004,-0.225830133865258,-0.0006188784175971,-0.0137967430416627,2.8382363319397,0.689041650295258,-12.8625444412231
228.48764700000004,0.0833291922382676,0.0039803356240298,-0.0031676634643052,4.95563888549805,-2.8252863407135,-14.069010925293
228.50779800000004,-0.0174460207132891,0.0040566372339253,0.007397877214921,2.10281535834074,-0.374660331010818,-12.2670623779297
228.52765,0.0858719064795803,0.0174680568038434,0.005121101874477,3.784268450737,-0.892762805521488,-12.2212289810181
228.547397,0.0732655853052742,0.0008874623368718,0.0021194776628531,4.59579071998596,-2.77525047659874,-12.5523143768311
228.56829700000003,-0.0139377949477386,-0.0375775296738619,0.0113288567241082,3.39151133298874,2.03393440246582,-14.5489915847778
228.58831200000003,0.311163799074785,-0.0216626116694383,0.023565319137393,3.11399260759354,-2.94044722318649,-11.5959608078003
228.607791,0.0099811550667269,-0.0159202071609128,0.0257227192687124,2.70247204303741,0.0485920310020447,-10.4205794334412
228.62764200000004,0.102917212779966,0.00455692588261,0.0077630762280101,3.60536351203918,1.53758296370506,-9.60891952514649
228.647653,0.104949054211758,-0.0242357021751241,0.0103696705738851,4.02800803184509,-1.62743153572083,-8.27158050537109
228.667647,-0.168158167174377,-0.0631896527111598,0.003089008951497,2.71363961771131,3.69296426773071,-10.999792098999
228.687687,0.154915792619224,-0.0185158163811421,0.0040860414037763,3.34369571208954,-1.8501057267189,-7.28105878829956
228.707791,-0.12938298763614,-0.0194668703023506,0.0033858318188293,3.71151704788208,1.11989095211029,-7.76034250259399
228.72783100000004,0.0083079294763075,0.0202396756492137,-0.004604463369061,2.55426596403122,1.32795899361372,-8.60853505134583
228.74768,0.0724304499135309,-0.0390080459977396,0.0060776328234015,2.77809609174728,-0.342444786429405,-5.9076584815979
228.76768200000004,-0.217368786419379,-0.0254556662232627,-0.0083990248282595,2.58045771121979,1.33781787157059,-7.92473468780518
228.787686,-0.0280731784647586,-0.0166133335656292,-0.0079872844397772,3.98961160182953,-0.495553612709045,-8.15078210830689
228.80780400000003,-0.0176911299319246,0.0206441626074886,-0.0050245165045007,3.22908480167389,1.45676400661469,-7.90071849822998
228.827703,0.0058252633834976,0.0019350741087244,-0.0100406325700642,3.26111273765564,1.66934247016907,-6.71638994216919
228.847689,-0.0572988225358511,-0.0101976893647252,-0.004505047169703,2.7937689781189,-2.26837724149227,-8.29061899185181
228.86807400000004,-0.0913504513096502,0.0109063425910021,-0.0178054156476726,3.40340366363525,3.67416219711304,-7.73874979019165
228.890437,-0.058696259201936,-0.0095423806774681,-0.0100788233668158,3.43773393630981,-0.953743767738342,-8.90056791305542
228.90781600000005,-0.0301394445099261,0.0027093070283489,-0.0140987912087969,2.91327078342438,0.404011249542236,-7.29934072494507
228.927685,-0.0355607517327649,-0.0171805584923818,-0.0296740877476429,3.02951879501343,2.44542976617813,-6.98387804031372
228.947002,-0.0946735935568384,0.0054336609618162,-0.0156288024062527,3.21598746776581,-1.91577739715576,-9.42504014968872
228.967688,0.0192847907484381,0.0293958309606043,-0.0340300455686008,2.88194060325623,2.65203914865851,-7.29270639419556
228.98769700000005,-0.0569697471885921,4.00171335154687e-05,-0.0256803115633487,4.05102925300598,-0.110672795772552,-8.43876667022705
229.007582,-0.11126347425975,0.0002607318252268,-0.0166673204591285,2.70289130210877,-0.834492945671082,-9.31151838302612
229.027721,0.0579354653038605,0.0054511177023155,-0.0433245874943468,3.10843000411987,2.61498596668243,-7.04797773361206
229.047725,-0.107407616269348,-0.0061704230407265,-0.0206878357286879,3.2814398765564,-1.75427879691124,-8.58884296417236
229.067722,-0.0615665191705878,0.0126802200505839,-0.0369285393069412,2.95983397960663,2.67910418063402,-8.36422290802002
229.08772700000003,0.0174406640012777,0.0162523599388821,-0.0370555763568372,3.95239791870117,0.201540330052376,-8.39361448287964
229.108273,-0.0994913009178362,0.0035734262839257,-0.0244673990630039,3.18877472877502,-0.901157200336456,-10.1991695404053
229.128374,0.0602630413169588,0.0120382200675215,-0.0465115752113463,3.15776636600494,2.86107246875763,-6.9718111038208
229.147722,-0.111797371085361,-0.0116058789287998,-0.0281156081855882,2.7043515920639,-1.72791448831558,-8.54261703491211
229.16772200000003,-0.077883370220885,0.0062161047772778,-0.0410636910009869,2.66638680696487,1.93775794506073,-9.87790946960449
229.187723,0.0906820674478443,-0.0048194430319183,-0.0484213969889268,4.35553379058838,0.977904564142227,-7.51208019256592
229.207879,-0.150502310753253,-0.0014245871801634,-0.0285030822783578,3.26290413141251,-1.38516240119934,-9.412437915802
229.227733,-0.0042758647276553,0.019905242968539,-0.0507446090869152,3.08285369873047,2.80765299797058,-9.34556922912598
229.24773500000003,-0.0072553269699726,0.0037155960962978,-0.0490635365216356,3.42720551490784,-1.50476757287979,-7.88533582687378
229.267748,-0.147369448532498,-0.014909450817609,-0.0445609419680389,2.39866623878479,-0.330490660667419,-12.0703544616699
229.287735,0.12178655161793,0.013165064997928,-0.0547622933569466,4.39644403457642,-0.180307830125093,-12.518537902832
229.307902,0.0789037600763484,-0.0286273694071887,-0.0261453470892108,2.89093794822693,-3.4066918194294,-12.1373138427734
229.327815,0.101526636890562,-0.0070657896696056,-0.0361766652234167,3.46316955089569,0.548925337195396,-11.1720537185669
229.347509,0.206607903207043,-0.0257501841541743,-0.0271600633460717,4.95774736404419,-2.38624396026135,-11.7460136413574
229.36776000000003,0.147128896189796,-0.0511193269926653,-0.0232007153260349,1.9647111415863,-0.340930449962616,-13.3222631454468
229.387761,0.355457872879942,-0.0090251213891782,-0.0203949192453727,4.45318388938904,-0.352547383308411,-9.85917291641235
229.408569,0.0517175487484334,-0.0623604948734831,-0.0180278142266147,3.01997635364533,-1.96869453191757,-13.7685552597046
229.428384,0.420545628985988,-0.0238862698308515,-0.0323737912983723,2.98689187765121,0.93950423002243,-12.7690012931824
229.448618,0.187150413150223,-0.0434865815531316,-0.023680642539104,4.82434945106506,-2.23066549599171,-10.5550476074219
229.469565,0.0153997700703265,-0.0854099918827279,-0.0257945334815908,2.55157520771027,2.51003544330597,-12.9511556625366
229.488785,0.279671926033087,-0.0388253759840025,-0.0211687569518764,4.16303987503052,-1.29337140917778,-9.13742351531982
229.508885,-0.0095666897760993,-0.0565394474516958,-0.0325743008228486,2.94284280538559,0.262282133102417,-9.20120973587036
229.52844800000005,-0.0335254776045601,-0.01986419726299,-0.0484235919071995,2.9431339263916,1.02159311175346,-10.2664785385132
229.548691,-0.0108712098134747,-0.0633546915325442,-0.0325637648837239,3.51686637401581,-1.58734602928162,-10.0380761146545
229.568649,-0.0958708324658504,-0.0499137023216933,-0.0449791799519918,3.17107801437378,1.97575463578105,-10.8443843841553
229.588644,0.120349060060622,-0.078090222803506,-0.0301793178327372,3.50340481102467,-2.55642585754395,-6.87770447731018
229.608758,-0.310238149580815,-0.0063018281484275,-0.0338913590231138,3.5724529504776,1.56739009618759,-6.94926900863648
229.628417,-0.0312797379308991,0.0259442677074208,-0.044842947775859,3.29438532590866,0.204779857397079,-8.42963523864746
229.648639,-0.0772991564562592,-0.0015851043089326,-0.0356216165063575,2.37286732196808,-2.19572930335999,-6.93044128417969
229.668662,-0.124511152293282,0.0154590893818889,-0.0394503399024664,3.67020292282105,3.1102740496397,-6.69459917545319
229.688654,-0.147002420415916,0.0345756121298281,-0.0308305360227667,3.45539412498474,-3.61686248779297,-10.6314283370972
229.70889800000003,0.0080383342363656,0.0788914896499302,-0.0379352606355423,2.99254877269268,2.61623401641846,-5.7633647441864
229.729402,-0.149097243597722,0.0002285735620249,-0.0314303092770636,3.53380265235901,-0.51022310256958,-8.76002531051636
229.748623,0.0436292209400031,0.0937407106803468,-0.0302346445922226,2.08329374790192,-1.22686046361923,-6.74577065706253
229.768618,-0.0921409999383614,0.0636748359391566,-0.039653768961785,4.13536763191223,2.30135629177094,-6.81508140563965
229.78862300000003,-0.100808119788682,0.092116192769406,-0.0237108517825831,3.53167200088501,-2.99330530166626,-10.5895269393921
229.80854500000004,0.0109135367954636,0.10634009739718,-0.0363691121161576,2.98497433662415,1.80892461538315,-7.82079811096191
229.828625,0.0040290468543899,0.0955983037242653,-0.0323621813359297,3.55108513832092,-0.986558628082275,-8.86566524505615
229.84862400000003,-0.105213504461003,0.0720598609728922,-0.0258910712993446,2.19061443805695,-2.27301440834999,-12.128803062439
229.86864100000005,0.134197115471771,0.128389894117626,-0.033332578684593,4.44201102256775,0.998162925243378,-9.37888669967651
229.888642,-0.101568729751091,0.0847407773513557,0.0027387995855607,3.30402536392212,-3.58549757003784,-12.2142593383789
229.908791,0.181751574899995,0.138336148279393,-0.0198517004086892,3.04132447242737,1.06027165651321,-10.6125835418701
229.928653,0.0972736579498344,0.0945306323417322,-0.0072551232677321,3.84969410896301,-3.274042314291,-9.32376956939697
229.947039,-0.144961564952849,0.100510416835348,-0.0041510784632357,2.97310330867767,2.27266771793366,-10.6205459594727
229.96707400000005,0.185190370780882,0.0900178461661621,-0.0034250373539716,3.88881049156189,-1.85524901151657,-10.6718040466309
229.98929200000003,-0.0784931768461991,0.0509816555850432,0.0040453773588167,2.54390888214111,-0.473150414228439,-11.5884724617004
230.008774,0.135711901435876,0.0744673894643822,-0.0150712575377993,3.76035134792328,1.40405532121658,-9.15789604187012
230.028634,-0.185806720497337,0.0888781114172258,0.004117416804854,3.99273996353149,-2.76534357070923,-12.6037662506104
230.048635,0.147026770704774,0.0852362754169169,-0.0075980246382473,3.21612091064453,3.99949474334717,-8.44724864959717
230.06863500000003,-0.0993591361582006,0.0486689328504494,0.0191948897577015,3.05799195766449,-4.66063671112061,-11.2496706962585
230.088633,0.0499899738378673,0.061157191650531,0.0013169586276273,3.02417569160461,2.98336852192879,-10.017654800415
230.108785,-0.0803246595476192,0.0108524173644797,-0.0051658063492338,3.83507504463196,-1.12850110530853,-11.2354652404785
230.128631,-0.0102566854868817,0.0615237170584492,0.0066964640993467,3.29430365562439,-0.348431038856506,-9.47290410995483
230.148639,0.0238379023258291,0.0024143234584982,0.0084970109618413,3.57140021324158,2.631092441082,-8.6376106262207
230.168651,-0.0443458224596284,0.0059020661115573,0.0237874495064125,3.19724683761597,-3.92047538757324,-12.41275806427
230.18872500000003,0.0390551977992686,0.0468769621104574,0.0051338900490215,3.72797598838806,3.03073917031288,-8.65986738204956
230.20878400000004,-0.048133141999394,-0.0059021447044031,0.0157507223990538,3.63607584238052,-1.16567753553391,-10.326188659668
230.228656,0.0108377318651304,-0.0003902399928017,0.0144241606193044,1.98761186823249,0.0953777104616165,-8.94569330215454
230.248654,-0.0027853434761617,-0.0059605785444601,0.0043999721818778,4.40613870620728,0.877415525913239,-10.2348573684692
230.266609,-0.0357091778138176,-0.0064248759012212,0.0232692653318315,2.61294031739235,-1.89961175918579,-11.1598718643188
230.289272,0.0169349193934412,-0.0018373582860036,0.0128338096460989,3.76646647453308,2.91698738336563,-7.67497825622559
230.308753,-0.028078912901799,-0.0375081099388016,0.0204925689625147,3.830708527565,-2.7002739906311,-10.6314523696899
230.328633,-0.0015298669724819,-0.009714589202231,0.0164561902478202,2.07722733020783,2.00407884716988,-9.0247932434082
230.348632,-0.0306060816017474,-0.0021205767790676,0.0148349738282179,4.87590270042419,-0.397140842676163,-10.053713798523
230.368634,-0.0441405658799187,-0.04062639294993,0.0258949808199738,2.19883382320404,-0.757236933708191,-10.2634808540344
230.38863000000003,0.0093688230544268,-0.0390326833161923,0.0154163242802933,3.4394787311554,2.097831428051,-8.16915884017944
230.408814,-0.0379273743642591,-0.0150620282047365,0.0266596380772179,4.01197538375855,-2.53122651576996,-10.5514548301697
230.42864000000003,-0.0296721307088459,-0.0153535510853908,0.0171621419633844,2.61212282180786,2.26942366361618,-9.35753288269043
230.44865300000004,-0.0196630019449161,-0.0319724905461469,0.0251962939714148,4.59718761444092,-1.28318058252335,-9.51770553588867
230.46864700000003,-0.0251282635779574,-0.0362370363652872,0.0265696094988672,2.172332239151,0.0412433981895447,-8.9469669342041
230.488651,-0.0613966828714515,-0.005573973470778,0.0198926363919971,3.74537630081177,1.06432158648968,-9.75858840942383
230.508561,-0.0254792982871376,-0.0152493997040598,0.033282852967363,3.77861685752869,-1.94542863368988,-10.1475419044495
230.52864900000003,-0.032627622754589,-0.0506121119647629,0.0181790550323215,2.72589753270149,2.23677347898483,-8.80411214828491
230.548656,-0.0431999799576339,-0.0395691353561949,0.0357298270187953,3.78891648799181,-1.84468687772751,-9.22239818572998
230.568435,-0.0040305548546193,0.0147692007301865,0.0251099926351051,2.64317256212235,0.941143816709518,-8.25106525421143
230.586642,-0.0825034042648941,-0.0030832787755144,0.0224484433070471,4.20198941230774,0.381879132986069,-9.81462354660034
230.611921,-0.0638912001499267,-0.0328200230124184,0.0366282071625161,3.08775019645691,-1.45763120055199,-10.9635105133057
230.62863500000003,0.000295839569039,-0.024707313430647,0.0218198894472969,2.81281054802239,2.11683235168457,-7.95838356018066
230.648633,-0.0513528201827688,-0.0106612896242491,0.0433220360675626,3.72886123657227,-2.29861959218979,-9.51469449996948
230.668634,-0.0156584143914486,0.0183863749109596,0.030458793755788,2.88397636413574,1.25422685146332,-8.91914100646973
230.68863600000003,-0.0770551008137817,-0.0248210196425198,0.0370042616200962,3.67917346954346,0.498745894432068,-9.56408939361572
230.708567,-0.0470533270604828,-0.0187965201990463,0.0431085253452371,3.16033797264099,-1.31905828714371,-9.9590217590332
230.72875500000004,-0.0201095025790612,0.0004777879252745,0.0324056957327219,3.16996065378189,1.57122517824173,-7.98843860626221
230.748656,-0.102951130327451,-0.0053814186016461,0.0541786979191681,3.60784823894501,-1.50743002295494,-10.373125743866
230.768648,0.0220627659603614,0.0114562192123018,0.0351457794354278,3.15547926425934,1.05035403855145,-9.20853729248047
230.788656,-0.0086627316708535,-0.0091800826606603,0.0447350161259886,3.18987145423889,0.0616719461977482,-7.85724544525147
230.808792,-0.166788835025891,-0.0222740280277394,0.0552832862788643,2.72353999614716,-0.461401700973511,-11.6472509384155
230.82876300000004,0.143395567464295,0.041027356960218,0.0352975611587633,4.0468891620636,0.504574358463287,-8.40404052734375
230.84663,-0.164409263453688,-0.0206111404739776,0.0545185362252481,3.04588236808777,-1.37350430488586,-9.17168121337891
230.869277,-0.0608567472982477,-0.0091049963399886,0.0494133286589852,2.75646286010742,1.71228320598602,-10.76500415802
230.888635,0.0656864224321895,0.0307647781935261,0.0504002095550717,4.08247308731079,-0.575093364715576,-8.15669298171997
230.908785,-0.164657490790219,-0.019211571385136,0.056124356614095,2.45852655768395,-0.623657795786858,-11.0383041381836
230.928385,0.0781771866159575,0.0419637627846965,0.0425017942568298,4.02585000991821,1.26017230600119,-8.85939388275147
230.94716700000004,-0.100484479657509,-0.0167327836539693,0.0563778507365608,2.80954613685608,-1.13294115066528,-9.21055316925049
230.968633,-0.0312707782133162,0.0073505126120174,0.0475451577755392,2.78956732749939,0.976618407666683,-10.1465486526489
230.988637,0.0127772611466215,0.0211433199748898,0.0542066570873471,4.59186935424805,0.031349241733551,-9.06060962677002
231.008784,-0.121476389923091,-0.0235443017651759,0.057028086279292,2.09519643783569,-0.249016386270523,-12.0945104598999
231.028633,0.12450186685629,0.0226367991107468,0.0434256768321211,3.89490933418274,0.478003793954849,-7.41636724472046
231.04871000000003,-0.134071583048767,0.0059761564395341,0.0634510117996193,3.07229151725769,-0.522007715702057,-8.83531694412232
231.06866,-0.0109352466487719,0.0019535627206181,0.0537939944609395,2.18498632907867,1.22757264822722,-11.862938117981
231.08864900000003,0.0665799274522144,0.0032084050664368,0.0513994039616064,4.75177137851715,-0.979497361183167,-8.34626808166504
231.10880200000005,-0.18494724239195,-0.0300894208737307,0.064642862837634,2.05070912837982,0.768950474262238,-9.37170867919922
231.128646,0.0491731366124018,0.0440388643701586,0.059626264443988,3.20042029619217,1.01411104202271,-9.28141746520996
231.146594,-0.0060128004722656,-0.0072603351333654,0.0626220409750395,4.57901573181152,-1.59349395036697,-9.213916015625
231.16902300000004,-0.0666743212476648,-0.0427323663733756,0.0546436475136957,1.68517973423004,1.58434981703758,-11.7486223220825
231.18863,0.0996417399344802,-0.0071197950276891,0.0581384384299831,3.71798651218414,0.207339072227478,-7.97727661132813
231.20855,-0.106210373750273,-0.0132541979255792,0.0587986732552682,2.70775966644287,-0.350477278232574,-8.55951833724976
231.228628,-0.0113295478736188,0.0053540725819454,0.0508559363264862,2.86197209358215,1.69671216011047,-10.1175455093384
231.24839000000003,0.0063315802750834,-0.0122335869981462,0.0609355720166468,3.9836969435215,-1.1041751742363,-9.46078987121582
231.26867300000004,0.0036067218057284,-0.0073151673734082,0.0429114959214433,2.31916089057922,1.28540145978332,-9.21744432449341
231.28863,0.005873620709326,0.0039907000555738,0.0499893806039165,3.69829511642456,0.0274557173252106,-8.28671131134033
231.308564,-0.110804492513546,-0.026154117766735,0.0492774075400796,3.18394742012024,-0.423061400651932,-11.1979943275452
231.328649,0.0769883681491823,0.0029373718674049,0.0321117480733934,3.01079471111298,1.59767619371414,-8.88602247238159
231.34864400000004,-0.0870700853661302,-0.0222956008170183,0.0548201073906222,3.21633143424988,-0.337722969055176,-9.25048036575317
